acc_x,acc_y,acc_z,gyro_x,gyro_y,gyro_z
-0.3223724663257599,0.2083110809326172,-0.014490127563476562,0.0272064208984375,-0.0039825439453125,0.0008544921875
-0.3223724663257599,0.2083110809326172,-0.014490127563476562,0.0272064208984375,-0.0039825439453125,0.0008544921875
-0.3223724663257599,0.2083110809326172,-0.014490127563476562,0.0272064208984375,-0.0039825439453125,0.0008544921875
-0.3223724663257599,0.2083110809326172,-0.014490127563476562,0.0272064208984375,-0.0039825439453125,0.0008544921875
-0.3014599084854126,0.1985921859741211,-0.07082736492156982,0.04510498046875,-0.0133514404296875,0.00213623046875
-0.3014599084854126,0.1985921859741211,-0.07082736492156982,0.04510498046875,-0.0133514404296875,0.00213623046875
-0.3014599084854126,0.1985921859741211,-0.07082736492156982,0.04510498046875,-0.0133514404296875,0.00213623046875
-0.3014599084854126,0.1985921859741211,-0.07082736492156982,0.04510498046875,-0.0133514404296875,0.00213623046875
-0.3014599084854126,0.1985921859741211,-0.07082736492156982,0.04510498046875,-0.0133514404296875,0.00213623046875
-0.3014599084854126,0.1985921859741211,-0.07082736492156982,0.04510498046875,-0.0133514404296875,0.00213623046875
-0.3014599084854126,0.1985921859741211,-0.07082736492156982,0.04510498046875,-0.0133514404296875,0.00213623046875
-0.3014599084854126,0.1985921859741211,-0.07082736492156982,0.04510498046875,-0.0133514404296875,0.00213623046875
-0.3014599084854126,0.1985921859741211,-0.07082736492156982,0.04510498046875,-0.0133514404296875,0.00213623046875
-0.3014599084854126,0.1985921859741211,-0.07082736492156982,0.04510498046875,-0.0133514404296875,0.00213623046875
-0.3014599084854126,0.1985921859741211,-0.07082736492156982,0.04510498046875,-0.0133514404296875,0.00213623046875
-0.3014599084854126,0.1985921859741211,-0.07082736492156982,0.04510498046875,-0.0133514404296875,0.00213623046875
-0.3014599084854126,0.1985921859741211,-0.07082736492156982,0.04510498046875,-0.0133514404296875,0.00213623046875
-0.3014599084854126,0.1985921859741211,-0.07082736492156982,0.04510498046875,-0.0133514404296875,0.00213623046875
-0.3014599084854126,0.1985921859741211,-0.07082736492156982,0.0206146240234375,-0.0259246826171875,0.00128173828125
-0.20900684595108032,0.13662052154541016,-0.07278555631637573,0.0206146240234375,-0.0259246826171875,0.00128173828125
-0.20900684595108032,0.13662052154541016,-0.07278555631637573,0.0206146240234375,-0.0259246826171875,0.00128173828125
-0.20900684595108032,0.13662052154541016,-0.07278555631637573,0.0206146240234375,-0.0259246826171875,0.00128173828125
-0.20900684595108032,0.13662052154541016,-0.07278555631637573,0.0206146240234375,-0.0259246826171875,0.00128173828125
-0.20900684595108032,0.13662052154541016,-0.07278555631637573,0.0206146240234375,-0.0259246826171875,0.00128173828125
-0.20900684595108032,0.13662052154541016,-0.07278555631637573,0.0206146240234375,-0.0259246826171875,0.00128173828125
-0.20900684595108032,0.13662052154541016,-0.07278555631637573,0.0206146240234375,-0.0259246826171875,0.00128173828125
-0.20900684595108032,0.13662052154541016,-0.07278555631637573,0.0206146240234375,-0.0259246826171875,0.00128173828125
-0.20900684595108032,0.13662052154541016,-0.07278555631637573,0.0206146240234375,-0.0259246826171875,0.00128173828125
-0.20900684595108032,0.13662052154541016,-0.07278555631637573,0.0206146240234375,-0.0259246826171875,0.00128173828125
-0.20900684595108032,0.13662052154541016,-0.07278555631637573,0.0206146240234375,-0.0259246826171875,0.00128173828125
-0.20900684595108032,0.13662052154541016,-0.07278555631637573,0.0206146240234375,-0.0259246826171875,0.00128173828125
-0.20900684595108032,0.13662052154541016,-0.07278555631637573,0.0206146240234375,-0.0259246826171875,0.00128173828125
-0.20900684595108032,0.13662052154541016,-0.07278555631637573,0.0206146240234375,-0.0259246826171875,0.00128173828125
-0.20900684595108032,0.13662052154541016,-0.07278555631637573,-0.02349853515625,-0.0231475830078125,-0.000213623046875
-0.1379278600215912,0.08545875549316406,-0.020872175693511963,-0.02349853515625,-0.0231475830078125,-0.000213623046875
-0.1379278600215912,0.08545875549316406,-0.020872175693511963,-0.02349853515625,-0.0231475830078125,-0.000213623046875
-0.1379278600215912,0.08545875549316406,-0.020872175693511963,-0.02349853515625,-0.0231475830078125,-0.000213623046875
-0.1379278600215912,0.08545875549316406,-0.020872175693511963,-0.02349853515625,-0.0231475830078125,-0.000213623046875
-0.1379278600215912,0.08545875549316406,-0.020872175693511963,-0.02349853515625,-0.0231475830078125,-0.000213623046875
-0.1379278600215912,0.08545875549316406,-0.020872175693511963,-0.02349853515625,-0.0231475830078125,-0.000213623046875
-0.1379278600215912,0.08545875549316406,-0.020872175693511963,-0.02349853515625,-0.0231475830078125,-0.000213623046875
-0.1379278600215912,0.08545875549316406,-0.020872175693511963,-0.02349853515625,-0.0231475830078125,-0.000213623046875
-0.1379278600215912,0.08545875549316406,-0.020872175693511963,-0.02349853515625,-0.0231475830078125,-0.000213623046875
-0.1379278600215912,0.08545875549316406,-0.020872175693511963,-0.02349853515625,-0.0231475830078125,-0.000213623046875
-0.1379278600215912,0.08545875549316406,-0.020872175693511963,-0.02349853515625,-0.0231475830078125,-0.000213623046875
-0.1379278600215912,0.08545875549316406,-0.020872175693511963,-0.02349853515625,-0.0231475830078125,-0.000213623046875
-0.1379278600215912,0.08545875549316406,-0.020872175693511963,-0.02349853515625,-0.0231475830078125,-0.000213623046875
-0.1379278600215912,0.08545875549316406,-0.020872175693511963,-0.02349853515625,-0.0231475830078125,-0.000213623046875
-0.09596967697143555,0.05681037902832031,0.015330731868743896,-0.009857177734375,-0.0029144287109375,0.001708984375
-0.09596967697143555,0.05681037902832031,0.015330731868743896,-0.009857177734375,-0.0029144287109375,0.001708984375
-0.09596967697143555,0.05681037902832031,0.015330731868743896,-0.009857177734375,-0.0029144287109375,0.001708984375
-0.09596967697143555,0.05681037902832031,0.015330731868743896,-0.009857177734375,-0.0029144287109375,0.001708984375
-0.09596967697143555,0.05681037902832031,0.015330731868743896,-0.009857177734375,-0.0029144287109375,0.001708984375
-0.09596967697143555,0.05681037902832031,0.015330731868743896,-0.009857177734375,-0.0029144287109375,0.001708984375
-0.09596967697143555,0.05681037902832031,0.015330731868743896,-0.009857177734375,-0.0029144287109375,0.001708984375
-0.09596967697143555,0.05681037902832031,0.015330731868743896,-0.009857177734375,-0.0029144287109375,0.001708984375
-0.09596967697143555,0.05681037902832031,0.015330731868743896,-0.009857177734375,-0.0029144287109375,0.001708984375
-0.09596967697143555,0.05681037902832031,0.015330731868743896,-0.009857177734375,-0.0029144287109375,0.001708984375
-0.09596967697143555,0.05681037902832031,0.015330731868743896,-0.009857177734375,-0.0029144287109375,0.001708984375
-0.09596967697143555,0.05681037902832031,0.015330731868743896,-0.009857177734375,-0.0029144287109375,0.001708984375
-0.09596967697143555,0.05681037902832031,0.015330731868743896,-0.009857177734375,-0.0029144287109375,0.001708984375
-0.09596967697143555,0.05681037902832031,0.015330731868743896,-0.009857177734375,-0.0029144287109375,0.001708984375
-0.09596967697143555,0.05681037902832031,0.015330731868743896,-0.009857177734375,-0.0029144287109375,0.001708984375
-0.09596967697143555,0.05681037902832031,0.015330731868743896,-0.009857177734375,-0.0029144287109375,0.001708984375
-0.06780737638473511,0.03694343566894531,-0.00821000337600708,-0.001556396484375,-0.0027008056640625,0.0025482177734375
-0.06780737638473511,0.03694343566894531,-0.00821000337600708,-0.001556396484375,-0.0027008056640625,0.0025482177734375
-0.06780737638473511,0.03694343566894531,-0.00821000337600708,-0.001556396484375,-0.0027008056640625,0.0025482177734375
-0.06780737638473511,0.03694343566894531,-0.00821000337600708,-0.001556396484375,-0.0027008056640625,0.0025482177734375
-0.06780737638473511,0.03694343566894531,-0.00821000337600708,-0.001556396484375,-0.0027008056640625,0.0025482177734375
-0.06780737638473511,0.03694343566894531,-0.00821000337600708,-0.001556396484375,-0.0027008056640625,0.0025482177734375
-0.06780737638473511,0.03694343566894531,-0.00821000337600708,-0.001556396484375,-0.0027008056640625,0.0025482177734375
-0.06780737638473511,0.03694343566894531,-0.00821000337600708,-0.001556396484375,-0.0027008056640625,0.0025482177734375
-0.06780737638473511,0.03694343566894531,-0.00821000337600708,-0.001556396484375,-0.0027008056640625,0.0025482177734375
-0.06780737638473511,0.03694343566894531,-0.00821000337600708,-0.001556396484375,-0.0027008056640625,0.0025482177734375
-0.06780737638473511,0.03694343566894531,-0.00821000337600708,-0.001556396484375,-0.0027008056640625,0.0025482177734375
-0.06780737638473511,0.03694343566894531,-0.00821000337600708,-0.001556396484375,-0.0027008056640625,0.0025482177734375
-0.06780737638473511,0.03694343566894531,-0.00821000337600708,-0.001556396484375,-0.0027008056640625,0.0025482177734375
-0.06780737638473511,0.03694343566894531,-0.00821000337600708,-0.001556396484375,-0.0027008056640625,0.0025482177734375
-0.06780737638473511,0.03694343566894531,-0.00821000337600708,-0.001556396484375,-0.0027008056640625,0.0025482177734375
-0.06780737638473511,0.03694343566894531,-0.00821000337600708,-0.008148193359375,-0.0027008056640625,0.001922607421875
-0.047877728939056396,0.02565479278564453,0.0017211437225341797,-0.008148193359375,-0.0027008056640625,0.001922607421875
-0.047877728939056396,0.02565479278564453,0.0017211437225341797,-0.008148193359375,-0.0027008056640625,0.001922607421875
-0.047877728939056396,0.02565479278564453,0.0017211437225341797,-0.008148193359375,-0.0027008056640625,0.001922607421875
-0.047877728939056396,0.02565479278564453,0.0017211437225341797,-0.008148193359375,-0.0027008056640625,0.001922607421875
-0.047877728939056396,0.02565479278564453,0.0017211437225341797,-0.008148193359375,-0.0027008056640625,0.001922607421875
-0.047877728939056396,0.02565479278564453,0.0017211437225341797,-0.008148193359375,-0.0027008056640625,0.001922607421875
-0.047877728939056396,0.02565479278564453,0.0017211437225341797,-0.008148193359375,-0.0027008056640625,0.001922607421875
-0.047877728939056396,0.02565479278564453,0.0017211437225341797,-0.008148193359375,-0.0027008056640625,0.001922607421875
-0.047877728939056396,0.02565479278564453,0.0017211437225341797,-0.008148193359375,-0.0027008056640625,0.001922607421875
-0.047877728939056396,0.02565479278564453,0.0017211437225341797,-0.008148193359375,-0.0027008056640625,0.001922607421875
-0.047877728939056396,0.02565479278564453,0.0017211437225341797,-0.008148193359375,-0.0027008056640625,0.001922607421875
-0.047877728939056396,0.02565479278564453,0.0017211437225341797,-0.008148193359375,-0.0027008056640625,0.001922607421875
-0.047877728939056396,0.02565479278564453,0.0017211437225341797,-0.008148193359375,-0.0027008056640625,0.001922607421875
-0.047877728939056396,0.02565479278564453,0.0017211437225341797,-0.008148193359375,-0.0027008056640625,0.001922607421875
-0.03150737285614014,0.019049644470214844,0.00709301233291626,-0.007293701171875,-0.0018463134765625,0.00213623046875
-0.03150737285614014,0.019049644470214844,0.00709301233291626,-0.007293701171875,-0.0018463134765625,0.00213623046875
-0.03150737285614014,0.019049644470214844,0.00709301233291626,-0.007293701171875,-0.0018463134765625,0.00213623046875
-0.03150737285614014,0.019049644470214844,0.00709301233291626,-0.007293701171875,-0.0018463134765625,0.00213623046875
-0.03150737285614014,0.019049644470214844,0.00709301233291626,-0.007293701171875,-0.0018463134765625,0.00213623046875
-0.03150737285614014,0.019049644470214844,0.00709301233291626,-0.007293701171875,-0.0018463134765625,0.00213623046875
-0.03150737285614014,0.019049644470214844,0.00709301233291626,-0.007293701171875,-0.0018463134765625,0.00213623046875
-0.03150737285614014,0.019049644470214844,0.00709301233291626,-0.007293701171875,-0.0018463134765625,0.00213623046875
-0.03150737285614014,0.019049644470214844,0.00709301233291626,-0.007293701171875,-0.0018463134765625,0.00213623046875
-0.03150737285614014,0.019049644470214844,0.00709301233291626,-0.007293701171875,-0.0018463134765625,0.00213623046875
-0.03150737285614014,0.019049644470214844,0.00709301233291626,-0.007293701171875,-0.0018463134765625,0.00213623046875
-0.03150737285614014,0.019049644470214844,0.00709301233291626,-0.007293701171875,-0.0018463134765625,0.00213623046875
-0.03150737285614014,0.019049644470214844,0.00709301233291626,-0.007293701171875,-0.0018463134765625,0.00213623046875
-0.03150737285614014,0.019049644470214844,0.00709301233291626,-0.007293701171875,-0.0018463134765625,0.00213623046875
-0.03150737285614014,0.019049644470214844,0.00709301233291626,-0.007293701171875,-0.0018463134765625,0.00213623046875
-0.01998114585876465,0.005011558532714844,0.00010663270950317383,-0.000701904296875,-0.0016326904296875,0.002777099609375
-0.01998114585876465,0.005011558532714844,0.00010663270950317383,-0.000701904296875,-0.0016326904296875,0.002777099609375
-0.01998114585876465,0.005011558532714844,0.00010663270950317383,-0.000701904296875,-0.0016326904296875,0.002777099609375
-0.01998114585876465,0.005011558532714844,0.00010663270950317383,-0.000701904296875,-0.0016326904296875,0.002777099609375
-0.01998114585876465,0.005011558532714844,0.00010663270950317383,-0.000701904296875,-0.0016326904296875,0.002777099609375
-0.01998114585876465,0.005011558532714844,0.00010663270950317383,-0.000701904296875,-0.0016326904296875,0.002777099609375
-0.01998114585876465,0.005011558532714844,0.00010663270950317383,-0.000701904296875,-0.0016326904296875,0.002777099609375
-0.01998114585876465,0.005011558532714844,0.00010663270950317383,-0.000701904296875,-0.0016326904296875,0.002777099609375
-0.01998114585876465,0.005011558532714844,0.00010663270950317383,-0.000701904296875,-0.0016326904296875,0.002777099609375
-0.01998114585876465,0.005011558532714844,0.00010663270950317383,-0.000701904296875,-0.0016326904296875,0.002777099609375
-0.01998114585876465,0.005011558532714844,0.00010663270950317383,-0.000701904296875,-0.0016326904296875,0.002777099609375
-0.01998114585876465,0.005011558532714844,0.00010663270950317383,-0.000701904296875,-0.0016326904296875,0.002777099609375
-0.01998114585876465,0.005011558532714844,0.00010663270950317383,-0.000701904296875,-0.0016326904296875,0.002777099609375
-0.01998114585876465,0.005011558532714844,0.00010663270950317383,-0.000701904296875,-0.0016326904296875,0.002777099609375
-0.01998114585876465,0.005011558532714844,0.00010663270950317383,-0.000701904296875,-0.0016326904296875,0.002777099609375
-0.023905456066131592,0.010096549987792969,0.019652128219604492,0.001220703125,-0.0022735595703125,0.0034027099609375
-0.023905456066131592,0.010096549987792969,0.019652128219604492,0.001220703125,-0.0022735595703125,0.0034027099609375
-0.023905456066131592,0.010096549987792969,0.019652128219604492,0.001220703125,-0.0022735595703125,0.0034027099609375
-0.023905456066131592,0.010096549987792969,0.019652128219604492,0.001220703125,-0.0022735595703125,0.0034027099609375
-0.023905456066131592,0.010096549987792969,0.019652128219604492,0.001220703125,-0.0022735595703125,0.0034027099609375
-0.023905456066131592,0.010096549987792969,0.019652128219604492,0.001220703125,-0.0022735595703125,0.0034027099609375
-0.023905456066131592,0.010096549987792969,0.019652128219604492,0.001220703125,-0.0022735595703125,0.0034027099609375
-0.023905456066131592,0.010096549987792969,0.019652128219604492,0.001220703125,-0.0022735595703125,0.0034027099609375
-0.023905456066131592,0.010096549987792969,0.019652128219604492,0.001220703125,-0.0022735595703125,0.0034027099609375
-0.023905456066131592,0.010096549987792969,0.019652128219604492,0.001220703125,-0.0022735595703125,0.0034027099609375
-0.023905456066131592,0.010096549987792969,0.019652128219604492,0.001220703125,-0.0022735595703125,0.0034027099609375
-0.023905456066131592,0.010096549987792969,0.019652128219604492,0.001220703125,-0.0022735595703125,0.0034027099609375
-0.023905456066131592,0.010096549987792969,0.019652128219604492,0.001220703125,-0.0022735595703125,0.0034027099609375
-0.023905456066131592,0.010096549987792969,0.019652128219604492,0.001220703125,-0.0022735595703125,0.0034027099609375
-0.023905456066131592,0.010096549987792969,0.019652128219604492,0.001220703125,-0.0022735595703125,0.0034027099609375
-0.013003289699554443,0.0022897720336914062,-0.011640608310699463,0.0206146240234375,-0.022308349609375,0.00213623046875
-0.013003289699554443,0.0022897720336914062,-0.011640608310699463,0.0206146240234375,-0.022308349609375,0.00213623046875
-0.013003289699554443,0.0022897720336914062,-0.011640608310699463,0.0206146240234375,-0.022308349609375,0.00213623046875
-0.013003289699554443,0.0022897720336914062,-0.011640608310699463,0.0206146240234375,-0.022308349609375,0.00213623046875
-0.013003289699554443,0.0022897720336914062,-0.011640608310699463,0.0206146240234375,-0.022308349609375,0.00213623046875
-0.013003289699554443,0.0022897720336914062,-0.011640608310699463,0.0206146240234375,-0.022308349609375,0.00213623046875
-0.013003289699554443,0.0022897720336914062,-0.011640608310699463,0.0206146240234375,-0.022308349609375,0.00213623046875
-0.013003289699554443,0.0022897720336914062,-0.011640608310699463,0.0206146240234375,-0.022308349609375,0.00213623046875
-0.013003289699554443,0.0022897720336914062,-0.011640608310699463,0.0206146240234375,-0.022308349609375,0.00213623046875
-0.013003289699554443,0.0022897720336914062,-0.011640608310699463,0.0206146240234375,-0.022308349609375,0.00213623046875
-0.013003289699554443,0.0022897720336914062,-0.011640608310699463,0.0206146240234375,-0.022308349609375,0.00213623046875
-0.013003289699554443,0.0022897720336914062,-0.011640608310699463,0.0206146240234375,-0.022308349609375,0.00213623046875
-0.013003289699554443,0.0022897720336914062,-0.011640608310699463,0.0206146240234375,-0.022308349609375,0.00213623046875
-0.013003289699554443,0.0022897720336914062,-0.011640608310699463,0.0206146240234375,-0.022308349609375,0.00213623046875
-0.014197349548339844,-0.0014219284057617188,0.015101969242095947,0.0176239013671875,-0.00823974609375,0.001068115234375
-0.014197349548339844,-0.0014219284057617188,0.015101969242095947,0.0176239013671875,-0.00823974609375,0.001068115234375
-0.014197349548339844,-0.0014219284057617188,0.015101969242095947,0.0176239013671875,-0.00823974609375,0.001068115234375
-0.014197349548339844,-0.0014219284057617188,0.015101969242095947,0.0176239013671875,-0.00823974609375,0.001068115234375
-0.014197349548339844,-0.0014219284057617188,0.015101969242095947,0.0176239013671875,-0.00823974609375,0.001068115234375
-0.014197349548339844,-0.0014219284057617188,0.015101969242095947,0.0176239013671875,-0.00823974609375,0.001068115234375
-0.014197349548339844,-0.0014219284057617188,0.015101969242095947,0.0176239013671875,-0.00823974609375,0.001068115234375
-0.014197349548339844,-0.0014219284057617188,0.015101969242095947,0.0176239013671875,-0.00823974609375,0.001068115234375
-0.014197349548339844,-0.0014219284057617188,0.015101969242095947,0.0176239013671875,-0.00823974609375,0.001068115234375
-0.014197349548339844,-0.0014219284057617188,0.015101969242095947,0.0176239013671875,-0.00823974609375,0.001068115234375
-0.014197349548339844,-0.0014219284057617188,0.015101969242095947,0.0176239013671875,-0.00823974609375,0.001068115234375
-0.014197349548339844,-0.0014219284057617188,0.015101969242095947,0.0176239013671875,-0.00823974609375,0.001068115234375
-0.014197349548339844,-0.0014219284057617188,0.015101969242095947,0.0176239013671875,-0.00823974609375,0.001068115234375
-0.014197349548339844,-0.0014219284057617188,0.015101969242095947,0.0176239013671875,-0.00823974609375,0.001068115234375
-0.013418018817901611,0.003612518310546875,-0.006234943866729736,0.022735595703125,-0.0248565673828125,-0.00042724609375
-0.013418018817901611,0.003612518310546875,-0.006234943866729736,0.022735595703125,-0.0248565673828125,-0.00042724609375
-0.013418018817901611,0.003612518310546875,-0.006234943866729736,0.022735595703125,-0.0248565673828125,-0.00042724609375
-0.013418018817901611,0.003612518310546875,-0.006234943866729736,0.022735595703125,-0.0248565673828125,-0.00042724609375
-0.013418018817901611,0.003612518310546875,-0.006234943866729736,0.022735595703125,-0.0248565673828125,-0.00042724609375
-0.013418018817901611,0.003612518310546875,-0.006234943866729736,0.022735595703125,-0.0248565673828125,-0.00042724609375
-0.013418018817901611,0.003612518310546875,-0.006234943866729736,0.022735595703125,-0.0248565673828125,-0.00042724609375
-0.013418018817901611,0.003612518310546875,-0.006234943866729736,0.022735595703125,-0.0248565673828125,-0.00042724609375
-0.013418018817901611,0.003612518310546875,-0.006234943866729736,0.022735595703125,-0.0248565673828125,-0.00042724609375
-0.013418018817901611,0.003612518310546875,-0.006234943866729736,0.022735595703125,-0.0248565673828125,-0.00042724609375
-0.013418018817901611,0.003612518310546875,-0.006234943866729736,0.022735595703125,-0.0248565673828125,-0.00042724609375
-0.011482834815979004,0.0018444061279296875,0.028052031993865967,0.0084686279296875,-0.01568603515625,0.001495361328125
-0.011482834815979004,0.0018444061279296875,0.028052031993865967,0.0084686279296875,-0.01568603515625,0.001495361328125
-0.011482834815979004,0.0018444061279296875,0.028052031993865967,0.0084686279296875,-0.01568603515625,0.001495361328125
-0.011482834815979004,0.0018444061279296875,0.028052031993865967,0.0084686279296875,-0.01568603515625,0.001495361328125
-0.011482834815979004,0.0018444061279296875,0.028052031993865967,0.0084686279296875,-0.01568603515625,0.001495361328125
-0.011482834815979004,0.0018444061279296875,0.028052031993865967,0.0084686279296875,-0.01568603515625,0.001495361328125
-0.011482834815979004,0.0018444061279296875,0.028052031993865967,0.0084686279296875,-0.01568603515625,0.001495361328125
-0.011482834815979004,0.0018444061279296875,0.028052031993865967,0.0084686279296875,-0.01568603515625,0.001495361328125
-0.011482834815979004,0.0018444061279296875,0.028052031993865967,0.0084686279296875,-0.01568603515625,0.001495361328125
-0.011482834815979004,0.0018444061279296875,0.028052031993865967,0.0084686279296875,-0.01568603515625,0.001495361328125
-0.011482834815979004,0.0018444061279296875,0.028052031993865967,0.0084686279296875,-0.01568603515625,0.001495361328125
-0.011482834815979004,0.0018444061279296875,0.028052031993865967,0.0084686279296875,-0.01568603515625,0.001495361328125
-0.011482834815979004,0.0018444061279296875,0.028052031993865967,0.0084686279296875,-0.01568603515625,0.001495361328125
-0.0035181641578674316,0.0026226043701171875,-0.037486881017684937,0.0301971435546875,-0.01165771484375,0.001495361328125
-0.0035181641578674316,0.0026226043701171875,-0.037486881017684937,0.0301971435546875,-0.01165771484375,0.001495361328125
-0.0035181641578674316,0.0026226043701171875,-0.037486881017684937,0.0301971435546875,-0.01165771484375,0.001495361328125
-0.0035181641578674316,0.0026226043701171875,-0.037486881017684937,0.0301971435546875,-0.01165771484375,0.001495361328125
-0.0035181641578674316,0.0026226043701171875,-0.037486881017684937,0.0301971435546875,-0.01165771484375,0.001495361328125
-0.0035181641578674316,0.0026226043701171875,-0.037486881017684937,0.0301971435546875,-0.01165771484375,0.001495361328125
-0.0035181641578674316,0.0026226043701171875,-0.037486881017684937,0.0301971435546875,-0.01165771484375,0.001495361328125
-0.0035181641578674316,0.0026226043701171875,-0.037486881017684937,0.0301971435546875,-0.01165771484375,0.001495361328125
-0.0035181641578674316,0.0026226043701171875,-0.037486881017684937,0.0301971435546875,-0.01165771484375,0.001495361328125
-0.0035181641578674316,0.0026226043701171875,-0.037486881017684937,0.0301971435546875,-0.01165771484375,0.001495361328125
-0.0035181641578674316,0.0026226043701171875,-0.037486881017684937,0.0301971435546875,-0.01165771484375,0.001495361328125
-0.0035181641578674316,0.0026226043701171875,-0.037486881017684937,0.0301971435546875,-0.01165771484375,0.001495361328125
-0.0035181641578674316,0.0026226043701171875,-0.037486881017684937,0.0301971435546875,-0.01165771484375,0.001495361328125
-0.01064985990524292,-0.0009202957153320312,0.005093574523925781,0.001861572265625,-0.0069580078125,0.00128173828125
-0.01064985990524292,-0.0009202957153320312,0.005093574523925781,0.001861572265625,-0.0069580078125,0.00128173828125
-0.01064985990524292,-0.0009202957153320312,0.005093574523925781,0.001861572265625,-0.0069580078125,0.00128173828125
-0.01064985990524292,-0.0009202957153320312,0.005093574523925781,0.001861572265625,-0.0069580078125,0.00128173828125
-0.01064985990524292,-0.0009202957153320312,0.005093574523925781,0.001861572265625,-0.0069580078125,0.00128173828125
-0.01064985990524292,-0.0009202957153320312,0.005093574523925781,0.001861572265625,-0.0069580078125,0.00128173828125
-0.01064985990524292,-0.0009202957153320312,0.005093574523925781,0.001861572265625,-0.0069580078125,0.00128173828125
-0.01064985990524292,-0.0009202957153320312,0.005093574523925781,0.001861572265625,-0.0069580078125,0.00128173828125
-0.01064985990524292,-0.0009202957153320312,0.005093574523925781,0.001861572265625,-0.0069580078125,0.00128173828125
-0.01064985990524292,-0.0009202957153320312,0.005093574523925781,0.001861572265625,-0.0069580078125,0.00128173828125
-0.01064985990524292,-0.0009202957153320312,0.005093574523925781,0.001861572265625,-0.0069580078125,0.00128173828125
-0.01064985990524292,-0.0009202957153320312,0.005093574523925781,0.001861572265625,-0.0069580078125,0.00128173828125
-0.01064985990524292,-0.0009202957153320312,0.005093574523925781,0.001861572265625,-0.0069580078125,0.00128173828125
-0.01064985990524292,-0.0009202957153320312,0.005093574523925781,0.001861572265625,-0.0069580078125,0.00128173828125
-0.01064985990524292,-0.0009202957153320312,0.005093574523925781,0.001861572265625,-0.0069580078125,0.00128173828125
-0.01064985990524292,-0.0009202957153320312,0.005093574523925781,0.001861572265625,-0.0069580078125,0.00128173828125
-0.01064985990524292,-0.0009202957153320312,0.005093574523925781,0.001861572265625,-0.0069580078125,0.00128173828125
-0.011226892471313477,-0.0027523040771484375,0.01671808958053589,0.010589599609375,-0.006744384765625,0.001068115234375
-0.011226892471313477,-0.0027523040771484375,0.01671808958053589,0.010589599609375,-0.006744384765625,0.001068115234375
-0.011226892471313477,-0.0027523040771484375,0.01671808958053589,0.010589599609375,-0.006744384765625,0.001068115234375
-0.011226892471313477,-0.0027523040771484375,0.01671808958053589,0.010589599609375,-0.006744384765625,0.001068115234375
-0.011226892471313477,-0.0027523040771484375,0.01671808958053589,0.010589599609375,-0.006744384765625,0.001068115234375
-0.011226892471313477,-0.0027523040771484375,0.01671808958053589,0.010589599609375,-0.006744384765625,0.001068115234375
-0.011226892471313477,-0.0027523040771484375,0.01671808958053589,0.010589599609375,-0.006744384765625,0.001068115234375
-0.011226892471313477,-0.0027523040771484375,0.01671808958053589,0.010589599609375,-0.006744384765625,0.001068115234375
-0.011226892471313477,-0.0027523040771484375,0.01671808958053589,0.010589599609375,-0.006744384765625,0.001068115234375
-0.011226892471313477,-0.0027523040771484375,0.01671808958053589,0.010589599609375,-0.006744384765625,0.001068115234375
-0.011226892471313477,-0.0027523040771484375,0.01671808958053589,0.010589599609375,-0.006744384765625,0.001068115234375
-0.011226892471313477,-0.0027523040771484375,0.01671808958053589,0.010589599609375,-0.006744384765625,0.001068115234375
-0.011226892471313477,-0.0027523040771484375,0.01671808958053589,0.010589599609375,-0.006744384765625,0.001068115234375
-0.011226892471313477,-0.0027523040771484375,0.01671808958053589,0.010589599609375,-0.006744384765625,0.001068115234375
-0.005171477794647217,0.0020961761474609375,-0.05160662531852722,0.0414886474609375,-0.0372161865234375,0.001495361328125
-0.005171477794647217,0.0020961761474609375,-0.05160662531852722,0.0414886474609375,-0.0372161865234375,0.001495361328125
-0.005171477794647217,0.0020961761474609375,-0.05160662531852722,0.0414886474609375,-0.0372161865234375,0.001495361328125
-0.005171477794647217,0.0020961761474609375,-0.05160662531852722,0.0414886474609375,-0.0372161865234375,0.001495361328125
-0.005171477794647217,0.0020961761474609375,-0.05160662531852722,0.0414886474609375,-0.0372161865234375,0.001495361328125
-0.005171477794647217,0.0020961761474609375,-0.05160662531852722,0.0414886474609375,-0.0372161865234375,0.001495361328125
-0.005171477794647217,0.0020961761474609375,-0.05160662531852722,0.0414886474609375,-0.0372161865234375,0.001495361328125
-0.005171477794647217,0.0020961761474609375,-0.05160662531852722,0.0414886474609375,-0.0372161865234375,0.001495361328125
-0.005171477794647217,0.0020961761474609375,-0.05160662531852722,0.0414886474609375,-0.0372161865234375,0.001495361328125
-0.005171477794647217,0.0020961761474609375,-0.05160662531852722,0.0414886474609375,-0.0372161865234375,0.001495361328125
-0.005171477794647217,0.0020961761474609375,-0.05160662531852722,0.0414886474609375,-0.0372161865234375,0.001495361328125
-0.005171477794647217,0.0020961761474609375,-0.05160662531852722,0.0414886474609375,-0.0372161865234375,0.001495361328125
-0.008617937564849854,0.00379180908203125,0.0328802764415741,-0.0034637451171875,-0.000579833984375,0.001068115234375
-0.008617937564849854,0.00379180908203125,0.0328802764415741,-0.0034637451171875,-0.000579833984375,0.001068115234375
-0.008617937564849854,0.00379180908203125,0.0328802764415741,-0.0034637451171875,-0.000579833984375,0.001068115234375
-0.008617937564849854,0.00379180908203125,0.0328802764415741,-0.0034637451171875,-0.000579833984375,0.001068115234375
-0.008617937564849854,0.00379180908203125,0.0328802764415741,-0.0034637451171875,-0.000579833984375,0.001068115234375
-0.008617937564849854,0.00379180908203125,0.0328802764415741,-0.0034637451171875,-0.000579833984375,0.001068115234375
-0.008617937564849854,0.00379180908203125,0.0328802764415741,-0.0034637451171875,-0.000579833984375,0.001068115234375
-0.008617937564849854,0.00379180908203125,0.0328802764415741,-0.0034637451171875,-0.000579833984375,0.001068115234375
-0.008617937564849854,0.00379180908203125,0.0328802764415741,-0.0034637451171875,-0.000579833984375,0.001068115234375
-0.008617937564849854,0.00379180908203125,0.0328802764415741,-0.0034637451171875,-0.000579833984375,0.001068115234375
-0.008617937564849854,0.00379180908203125,0.0328802764415741,-0.0034637451171875,-0.000579833984375,0.001068115234375
-0.008617937564849854,0.00379180908203125,0.0328802764415741,-0.0034637451171875,-0.000579833984375,0.001068115234375
-0.008617937564849854,0.00379180908203125,0.0328802764415741,-0.0034637451171875,-0.000579833984375,0.001068115234375
-0.008617937564849854,0.00379180908203125,0.0328802764415741,-0.0034637451171875,-0.000579833984375,0.001068115234375
-0.007008373737335205,-0.00023365020751953125,0.013955652713775635,0.01123046875,-0.0016326904296875,0.0021209716796875
-0.007008373737335205,-0.00023365020751953125,0.013955652713775635,0.01123046875,-0.0016326904296875,0.0021209716796875
-0.007008373737335205,-0.00023365020751953125,0.013955652713775635,0.01123046875,-0.0016326904296875,0.0021209716796875
-0.007008373737335205,-0.00023365020751953125,0.013955652713775635,0.01123046875,-0.0016326904296875,0.0021209716796875
-0.007008373737335205,-0.00023365020751953125,0.013955652713775635,0.01123046875,-0.0016326904296875,0.0021209716796875
-0.007008373737335205,-0.00023365020751953125,0.013955652713775635,0.01123046875,-0.0016326904296875,0.0021209716796875
-0.007008373737335205,-0.00023365020751953125,0.013955652713775635,0.01123046875,-0.0016326904296875,0.0021209716796875
-0.007008373737335205,-0.00023365020751953125,0.013955652713775635,0.01123046875,-0.0016326904296875,0.0021209716796875
-0.007008373737335205,-0.00023365020751953125,0.013955652713775635,0.01123046875,-0.0016326904296875,0.0021209716796875
-0.007008373737335205,-0.00023365020751953125,0.013955652713775635,0.01123046875,-0.0016326904296875,0.0021209716796875
-0.007008373737335205,-0.00023365020751953125,0.013955652713775635,0.01123046875,-0.0016326904296875,0.0021209716796875
-0.007008373737335205,-0.00023365020751953125,0.013955652713775635,0.01123046875,-0.0016326904296875,0.0021209716796875
-0.007008373737335205,-0.00023365020751953125,0.013955652713775635,0.01123046875,-0.0016326904296875,0.0021209716796875
-0.007008373737335205,-0.00023365020751953125,0.013955652713775635,0.01123046875,-0.0016326904296875,0.0021209716796875
-0.007008373737335205,-0.00023365020751953125,0.013955652713775635,0.01123046875,-0.0016326904296875,0.0021209716796875
-0.010055601596832275,-0.0009965896606445312,-0.023160606622695923,0.016571044921875,-0.0031280517578125,0.002349853515625
-0.010055601596832275,-0.0009965896606445312,-0.023160606622695923,0.016571044921875,-0.0031280517578125,0.002349853515625
-0.010055601596832275,-0.0009965896606445312,-0.023160606622695923,0.016571044921875,-0.0031280517578125,0.002349853515625
-0.010055601596832275,-0.0009965896606445312,-0.023160606622695923,0.016571044921875,-0.0031280517578125,0.002349853515625
-0.010055601596832275,-0.0009965896606445312,-0.023160606622695923,0.016571044921875,-0.0031280517578125,0.002349853515625
-0.010055601596832275,-0.0009965896606445312,-0.023160606622695923,0.016571044921875,-0.0031280517578125,0.002349853515625
-0.010055601596832275,-0.0009965896606445312,-0.023160606622695923,0.016571044921875,-0.0031280517578125,0.002349853515625
-0.010055601596832275,-0.0009965896606445312,-0.023160606622695923,0.016571044921875,-0.0031280517578125,0.002349853515625
-0.010055601596832275,-0.0009965896606445312,-0.023160606622695923,0.016571044921875,-0.0031280517578125,0.002349853515625
-0.010055601596832275,-0.0009965896606445312,-0.023160606622695923,0.016571044921875,-0.0031280517578125,0.002349853515625
-0.010055601596832275,-0.0009965896606445312,-0.023160606622695923,0.016571044921875,-0.0031280517578125,0.002349853515625
-0.010055601596832275,-0.0009965896606445312,-0.023160606622695923,0.016571044921875,-0.0031280517578125,0.002349853515625
-0.010055601596832275,-0.0009965896606445312,-0.023160606622695923,0.016571044921875,-0.0031280517578125,0.002349853515625
-0.010055601596832275,-0.0009965896606445312,-0.023160606622695923,0.016571044921875,-0.0031280517578125,0.002349853515625
-0.010055601596832275,-0.0009965896606445312,-0.023160606622695923,0.016571044921875,-0.0031280517578125,0.002349853515625
-0.010055601596832275,-0.0009965896606445312,-0.023160606622695923,0.016571044921875,-0.0031280517578125,0.002349853515625
-0.010055601596832275,-0.0009965896606445312,-0.023160606622695923,0.016571044921875,-0.0031280517578125,0.002349853515625
-0.006794393062591553,0.0017557144165039062,0.015454620122909546,-0.0062408447265625,-0.0020599365234375,0.001922607421875
-0.006794393062591553,0.0017557144165039062,0.015454620122909546,-0.0062408447265625,-0.0020599365234375,0.001922607421875
-0.006794393062591553,0.0017557144165039062,0.015454620122909546,-0.0062408447265625,-0.0020599365234375,0.001922607421875
-0.006794393062591553,0.0017557144165039062,0.015454620122909546,-0.0062408447265625,-0.0020599365234375,0.001922607421875
-0.006794393062591553,0.0017557144165039062,0.015454620122909546,-0.0062408447265625,-0.0020599365234375,0.001922607421875
-0.006794393062591553,0.0017557144165039062,0.015454620122909546,-0.0062408447265625,-0.0020599365234375,0.001922607421875
-0.006794393062591553,0.0017557144165039062,0.015454620122909546,-0.0062408447265625,-0.0020599365234375,0.001922607421875
-0.006794393062591553,0.0017557144165039062,0.015454620122909546,-0.0062408447265625,-0.0020599365234375,0.001922607421875
-0.006794393062591553,0.0017557144165039062,0.015454620122909546,-0.0062408447265625,-0.0020599365234375,0.001922607421875
-0.006794393062591553,0.0017557144165039062,0.015454620122909546,-0.0062408447265625,-0.0020599365234375,0.001922607421875
-0.006794393062591553,0.0017557144165039062,0.015454620122909546,-0.0062408447265625,-0.0020599365234375,0.001922607421875
-0.006794393062591553,0.0017557144165039062,0.015454620122909546,-0.0062408447265625,-0.0020599365234375,0.001922607421875
-0.006794393062591553,0.0017557144165039062,0.015454620122909546,-0.0062408447265625,-0.0020599365234375,0.001922607421875
-0.006794393062591553,0.0017557144165039062,0.015454620122909546,-0.0062408447265625,-0.0020599365234375,0.001922607421875
-0.006794393062591553,0.0017557144165039062,0.015454620122909546,-0.0062408447265625,-0.0020599365234375,0.001922607421875
-0.006794393062591553,0.0017557144165039062,0.015454620122909546,-0.0062408447265625,-0.0020599365234375,0.001922607421875
-0.006794393062591553,0.0017557144165039062,0.015454620122909546,-0.0062408447265625,-0.0020599365234375,0.001922607421875
-0.006794393062591553,0.0017557144165039062,0.015454620122909546,-0.0062408447265625,-0.0020599365234375,0.001922607421875
-0.006794393062591553,0.0017557144165039062,0.015454620122909546,-0.0062408447265625,-0.0020599365234375,0.001922607421875
-0.024483203887939453,-0.0016183853149414062,0.11936596035957336,0.010589599609375,0.0062408447265625,0.002777099609375
-0.024483203887939453,-0.0016183853149414062,0.11936596035957336,0.010589599609375,0.0062408447265625,0.002777099609375
-0.024483203887939453,-0.0016183853149414062,0.11936596035957336,0.010589599609375,0.0062408447265625,0.002777099609375
-0.024483203887939453,-0.0016183853149414062,0.11936596035957336,0.010589599609375,0.0062408447265625,0.002777099609375
-0.024483203887939453,-0.0016183853149414062,0.11936596035957336,0.010589599609375,0.0062408447265625,0.002777099609375
-0.024483203887939453,-0.0016183853149414062,0.11936596035957336,0.010589599609375,0.0062408447265625,0.002777099609375
-0.024483203887939453,-0.0016183853149414062,0.11936596035957336,0.010589599609375,0.0062408447265625,0.002777099609375
-0.024483203887939453,-0.0016183853149414062,0.11936596035957336,0.010589599609375,0.0062408447265625,0.002777099609375
-0.024483203887939453,-0.0016183853149414062,0.11936596035957336,0.010589599609375,0.0062408447265625,0.002777099609375
-0.024483203887939453,-0.0016183853149414062,0.11936596035957336,0.010589599609375,0.0062408447265625,0.002777099609375
-0.024483203887939453,-0.0016183853149414062,0.11936596035957336,0.010589599609375,0.0062408447265625,0.002777099609375
-0.024483203887939453,-0.0016183853149414062,0.11936596035957336,0.010589599609375,0.0062408447265625,0.002777099609375
-0.024483203887939453,-0.0016183853149414062,0.11936596035957336,0.010589599609375,0.0062408447265625,0.002777099609375
-0.024483203887939453,-0.0016183853149414062,0.11936596035957336,0.010589599609375,0.0062408447265625,0.002777099609375
-0.024483203887939453,-0.0016183853149414062,0.11936596035957336,0.010589599609375,0.0062408447265625,0.002777099609375
0.0127524733543396,-0.0023059844970703125,0.10175388306379318,0.0521392822265625,0.616851806640625,0.02386474609375
0.0127524733543396,-0.0023059844970703125,0.10175388306379318,0.0521392822265625,0.616851806640625,0.02386474609375
0.0127524733543396,-0.0023059844970703125,0.10175388306379318,0.0521392822265625,0.616851806640625,0.02386474609375
0.0127524733543396,-0.0023059844970703125,0.10175388306379318,0.0521392822265625,0.616851806640625,0.02386474609375
0.0127524733543396,-0.0023059844970703125,0.10175388306379318,0.0521392822265625,0.616851806640625,0.02386474609375
0.0127524733543396,-0.0023059844970703125,0.10175388306379318,0.0521392822265625,0.616851806640625,0.02386474609375
0.0127524733543396,-0.0023059844970703125,0.10175388306379318,0.0521392822265625,0.616851806640625,0.02386474609375
0.0127524733543396,-0.0023059844970703125,0.10175388306379318,0.0521392822265625,0.616851806640625,0.02386474609375
0.0127524733543396,-0.0023059844970703125,0.10175388306379318,0.0521392822265625,0.616851806640625,0.02386474609375
0.0127524733543396,-0.0023059844970703125,0.10175388306379318,0.0521392822265625,0.616851806640625,0.02386474609375
0.0127524733543396,-0.0023059844970703125,0.10175388306379318,0.0521392822265625,0.616851806640625,0.02386474609375
0.0127524733543396,-0.0023059844970703125,0.10175388306379318,0.0521392822265625,0.616851806640625,0.02386474609375
-0.023399770259857178,-0.0041408538818359375,0.0553511306643486,0.0764312744140625,0.6933441162109375,0.010009765625
-0.023399770259857178,-0.0041408538818359375,0.0553511306643486,0.0764312744140625,0.6933441162109375,0.010009765625
-0.023399770259857178,-0.0041408538818359375,0.0553511306643486,0.0764312744140625,0.6933441162109375,0.010009765625
-0.023399770259857178,-0.0041408538818359375,0.0553511306643486,0.0764312744140625,0.6933441162109375,0.010009765625
-0.023399770259857178,-0.0041408538818359375,0.0553511306643486,0.0764312744140625,0.6933441162109375,0.010009765625
-0.023399770259857178,-0.0041408538818359375,0.0553511306643486,0.0764312744140625,0.6933441162109375,0.010009765625
-0.023399770259857178,-0.0041408538818359375,0.0553511306643486,0.0764312744140625,0.6933441162109375,0.010009765625
-0.023399770259857178,-0.0041408538818359375,0.0553511306643486,0.0764312744140625,0.6933441162109375,0.010009765625
-0.023399770259857178,-0.0041408538818359375,0.0553511306643486,0.0764312744140625,0.6933441162109375,0.010009765625
-0.023399770259857178,-0.0041408538818359375,0.0553511306643486,0.0764312744140625,0.6933441162109375,0.010009765625
-0.023399770259857178,-0.0041408538818359375,0.0553511306643486,0.0764312744140625,0.6933441162109375,0.010009765625
-0.023399770259857178,-0.0041408538818359375,0.0553511306643486,0.0764312744140625,0.6933441162109375,0.010009765625
-0.023399770259857178,-0.0041408538818359375,0.0553511306643486,0.0764312744140625,0.6933441162109375,0.010009765625
-0.023399770259857178,-0.0041408538818359375,0.0553511306643486,0.0764312744140625,0.6933441162109375,0.010009765625
-0.04258894920349121,0.0031023025512695312,0.010450299829244614,0.0204010009765625,0.2126922607421875,0.001068115234375
-0.04258894920349121,0.0031023025512695312,0.010450299829244614,0.0204010009765625,0.2126922607421875,0.001068115234375
-0.04258894920349121,0.0031023025512695312,0.010450299829244614,0.0204010009765625,0.2126922607421875,0.001068115234375
-0.04258894920349121,0.0031023025512695312,0.010450299829244614,0.0204010009765625,0.2126922607421875,0.001068115234375
-0.04258894920349121,0.0031023025512695312,0.010450299829244614,0.0204010009765625,0.2126922607421875,0.001068115234375
-0.04258894920349121,0.0031023025512695312,0.010450299829244614,0.0204010009765625,0.2126922607421875,0.001068115234375
-0.04258894920349121,0.0031023025512695312,0.010450299829244614,0.0204010009765625,0.2126922607421875,0.001068115234375
-0.04258894920349121,0.0031023025512695312,0.010450299829244614,0.0204010009765625,0.2126922607421875,0.001068115234375
-0.04258894920349121,0.0031023025512695312,0.010450299829244614,0.0204010009765625,0.2126922607421875,0.001068115234375
-0.04258894920349121,0.0031023025512695312,0.010450299829244614,0.0204010009765625,0.2126922607421875,0.001068115234375
-0.04258894920349121,0.0031023025512695312,0.010450299829244614,0.0204010009765625,0.2126922607421875,0.001068115234375
-0.04258894920349121,0.0031023025512695312,0.010450299829244614,0.0204010009765625,0.2126922607421875,0.001068115234375
-0.04258894920349121,0.0031023025512695312,0.010450299829244614,0.0204010009765625,0.2126922607421875,0.001068115234375
-0.04258894920349121,0.0031023025512695312,0.010450299829244614,0.0204010009765625,0.2126922607421875,0.001068115234375
-0.04258894920349121,0.0031023025512695312,0.010450299829244614,0.0204010009765625,0.2126922607421875,0.001068115234375
-0.04258894920349121,0.0031023025512695312,0.010450299829244614,0.0204010009765625,0.2126922607421875,0.001068115234375
-0.05698537826538086,0.001728057861328125,0.11097355931997299,-0.0038909912109375,0.0192413330078125,0.001068115234375
-0.05698537826538086,0.001728057861328125,0.11097355931997299,-0.0038909912109375,0.0192413330078125,0.001068115234375
-0.05698537826538086,0.001728057861328125,0.11097355931997299,-0.0038909912109375,0.0192413330078125,0.001068115234375
-0.05698537826538086,0.001728057861328125,0.11097355931997299,-0.0038909912109375,0.0192413330078125,0.001068115234375
-0.05698537826538086,0.001728057861328125,0.11097355931997299,-0.0038909912109375,0.0192413330078125,0.001068115234375
-0.05698537826538086,0.001728057861328125,0.11097355931997299,-0.0038909912109375,0.0192413330078125,0.001068115234375
-0.05698537826538086,0.001728057861328125,0.11097355931997299,-0.0038909912109375,0.0192413330078125,0.001068115234375
-0.05698537826538086,0.001728057861328125,0.11097355931997299,-0.0038909912109375,0.0192413330078125,0.001068115234375
-0.05698537826538086,0.001728057861328125,0.11097355931997299,-0.0038909912109375,0.0192413330078125,0.001068115234375
-0.05698537826538086,0.001728057861328125,0.11097355931997299,-0.0038909912109375,0.0192413330078125,0.001068115234375
-0.05698537826538086,0.001728057861328125,0.11097355931997299,-0.0038909912109375,0.0192413330078125,0.001068115234375
-0.05698537826538086,0.001728057861328125,0.11097355931997299,-0.0038909912109375,0.0192413330078125,0.001068115234375
-0.05698537826538086,0.001728057861328125,0.11097355931997299,-0.0038909912109375,0.0192413330078125,0.001068115234375
-0.05698537826538086,0.001728057861328125,0.11097355931997299,-0.0038909912109375,0.0192413330078125,0.001068115234375
-0.03308635950088501,-0.0006647109985351562,0.07591889798641205,0.003997802734375,-0.0012054443359375,0.001495361328125
-0.03308635950088501,-0.0006647109985351562,0.07591889798641205,0.003997802734375,-0.0012054443359375,0.001495361328125
-0.03308635950088501,-0.0006647109985351562,0.07591889798641205,0.003997802734375,-0.0012054443359375,0.001495361328125
-0.03308635950088501,-0.0006647109985351562,0.07591889798641205,0.003997802734375,-0.0012054443359375,0.001495361328125
-0.03308635950088501,-0.0006647109985351562,0.07591889798641205,0.003997802734375,-0.0012054443359375,0.001495361328125
-0.03308635950088501,-0.0006647109985351562,0.07591889798641205,0.003997802734375,-0.0012054443359375,0.001495361328125
-0.03308635950088501,-0.0006647109985351562,0.07591889798641205,0.003997802734375,-0.0012054443359375,0.001495361328125
-0.03308635950088501,-0.0006647109985351562,0.07591889798641205,0.003997802734375,-0.0012054443359375,0.001495361328125
-0.03308635950088501,-0.0006647109985351562,0.07591889798641205,0.003997802734375,-0.0012054443359375,0.001495361328125
-0.03308635950088501,-0.0006647109985351562,0.07591889798641205,0.003997802734375,-0.0012054443359375,0.001495361328125
-0.03308635950088501,-0.0006647109985351562,0.07591889798641205,0.003997802734375,-0.0012054443359375,0.001495361328125
-0.03308635950088501,-0.0006647109985351562,0.07591889798641205,0.003997802734375,-0.0012054443359375,0.001495361328125
-0.03308635950088501,-0.0006647109985351562,0.07591889798641205,0.003997802734375,-0.0012054443359375,0.001495361328125
-0.03308635950088501,-0.0006647109985351562,0.07591889798641205,0.003997802734375,-0.0012054443359375,0.001495361328125
-0.03308635950088501,-0.0006647109985351562,0.07591889798641205,0.003997802734375,-0.0012054443359375,0.001495361328125
-0.028689086437225342,0.0014867782592773438,0.047192901372909546,0.0095367431640625,-0.0039825439453125,0.001708984375
-0.028689086437225342,0.0014867782592773438,0.047192901372909546,0.0095367431640625,-0.0039825439453125,0.001708984375
-0.028689086437225342,0.0014867782592773438,0.047192901372909546,0.0095367431640625,-0.0039825439453125,0.001708984375
-0.028689086437225342,0.0014867782592773438,0.047192901372909546,0.0095367431640625,-0.0039825439453125,0.001708984375
-0.028689086437225342,0.0014867782592773438,0.047192901372909546,0.0095367431640625,-0.0039825439453125,0.001708984375
-0.028689086437225342,0.0014867782592773438,0.047192901372909546,0.0095367431640625,-0.0039825439453125,0.001708984375
-0.028689086437225342,0.0014867782592773438,0.047192901372909546,0.0095367431640625,-0.0039825439453125,0.001708984375
-0.028689086437225342,0.0014867782592773438,0.047192901372909546,0.0095367431640625,-0.0039825439453125,0.001708984375
-0.028689086437225342,0.0014867782592773438,0.047192901372909546,0.0095367431640625,-0.0039825439453125,0.001708984375
-0.028689086437225342,0.0014867782592773438,0.047192901372909546,0.0095367431640625,-0.0039825439453125,0.001708984375
-0.028689086437225342,0.0014867782592773438,0.047192901372909546,0.0095367431640625,-0.0039825439453125,0.001708984375
-0.028689086437225342,0.0014867782592773438,0.047192901372909546,0.0095367431640625,-0.0039825439453125,0.001708984375
-0.028689086437225342,0.0014867782592773438,0.047192901372909546,0.0095367431640625,-0.0039825439453125,0.001708984375
-0.028689086437225342,0.0014867782592773438,0.047192901372909546,0.0095367431640625,-0.0039825439453125,0.001708984375
-0.022778809070587158,-0.0015926361083984375,0.115488201379776,0.0103912353515625,-0.12200927734375,0.0031890869140625
-0.022778809070587158,-0.0015926361083984375,0.115488201379776,0.0103912353515625,-0.12200927734375,0.0031890869140625
-0.022778809070587158,-0.0015926361083984375,0.115488201379776,0.0103912353515625,-0.12200927734375,0.0031890869140625
-0.022778809070587158,-0.0015926361083984375,0.115488201379776,0.0103912353515625,-0.12200927734375,0.0031890869140625
-0.022778809070587158,-0.0015926361083984375,0.115488201379776,0.0103912353515625,-0.12200927734375,0.0031890869140625
-0.022778809070587158,-0.0015926361083984375,0.115488201379776,0.0103912353515625,-0.12200927734375,0.0031890869140625
-0.022778809070587158,-0.0015926361083984375,0.115488201379776,0.0103912353515625,-0.12200927734375,0.0031890869140625
-0.022778809070587158,-0.0015926361083984375,0.115488201379776,0.0103912353515625,-0.12200927734375,0.0031890869140625
-0.022778809070587158,-0.0015926361083984375,0.115488201379776,0.0103912353515625,-0.12200927734375,0.0031890869140625
-0.022778809070587158,-0.0015926361083984375,0.115488201379776,0.0103912353515625,-0.12200927734375,0.0031890869140625
-0.022778809070587158,-0.0015926361083984375,0.115488201379776,0.0103912353515625,-0.12200927734375,0.0031890869140625
-0.022778809070587158,-0.0015926361083984375,0.115488201379776,0.0103912353515625,-0.12200927734375,0.0031890869140625
-0.022778809070587158,-0.0015926361083984375,0.115488201379776,0.0103912353515625,-0.12200927734375,0.0031890869140625
-0.022778809070587158,-0.0015926361083984375,0.115488201379776,0.0103912353515625,-0.12200927734375,0.0031890869140625
-0.022778809070587158,-0.0015926361083984375,0.115488201379776,0.1997833251953125,-1.0151214599609375,0.0187530517578125
-0.01171565055847168,-0.005448341369628906,-0.5792973041534424,0.1997833251953125,-1.0151214599609375,0.0187530517578125
-0.01171565055847168,-0.005448341369628906,-0.5792973041534424,0.1997833251953125,-1.0151214599609375,0.0187530517578125
-0.01171565055847168,-0.005448341369628906,-0.5792973041534424,0.1997833251953125,-1.0151214599609375,0.0187530517578125
-0.01171565055847168,-0.005448341369628906,-0.5792973041534424,0.1997833251953125,-1.0151214599609375,0.0187530517578125
-0.01171565055847168,-0.005448341369628906,-0.5792973041534424,0.1997833251953125,-1.0151214599609375,0.0187530517578125
-0.01171565055847168,-0.005448341369628906,-0.5792973041534424,0.1997833251953125,-1.0151214599609375,0.0187530517578125
-0.01171565055847168,-0.005448341369628906,-0.5792973041534424,0.1997833251953125,-1.0151214599609375,0.0187530517578125
-0.01171565055847168,-0.005448341369628906,-0.5792973041534424,0.1997833251953125,-1.0151214599609375,0.0187530517578125
-0.01171565055847168,-0.005448341369628906,-0.5792973041534424,0.1997833251953125,-1.0151214599609375,0.0187530517578125
-0.01171565055847168,-0.005448341369628906,-0.5792973041534424,0.1997833251953125,-1.0151214599609375,0.0187530517578125
-0.01171565055847168,-0.005448341369628906,-0.5792973041534424,0.1997833251953125,-1.0151214599609375,0.0187530517578125
-0.01171565055847168,-0.005448341369628906,-0.5792973041534424,0.1997833251953125,-1.0151214599609375,0.0187530517578125
-0.01171565055847168,-0.005448341369628906,-0.5792973041534424,0.1997833251953125,-1.0151214599609375,0.0187530517578125
-0.05120968818664551,-0.001964569091796875,0.04989774897694588,-0.137054443359375,-0.5523681640625,0.0189666748046875
-0.05120968818664551,-0.001964569091796875,0.04989774897694588,-0.137054443359375,-0.5523681640625,0.0189666748046875
-0.05120968818664551,-0.001964569091796875,0.04989774897694588,-0.137054443359375,-0.5523681640625,0.0189666748046875
-0.05120968818664551,-0.001964569091796875,0.04989774897694588,-0.137054443359375,-0.5523681640625,0.0189666748046875
-0.05120968818664551,-0.001964569091796875,0.04989774897694588,-0.137054443359375,-0.5523681640625,0.0189666748046875
-0.05120968818664551,-0.001964569091796875,0.04989774897694588,-0.137054443359375,-0.5523681640625,0.0189666748046875
-0.05120968818664551,-0.001964569091796875,0.04989774897694588,-0.137054443359375,-0.5523681640625,0.0189666748046875
-0.05120968818664551,-0.001964569091796875,0.04989774897694588,-0.137054443359375,-0.5523681640625,0.0189666748046875
-0.05120968818664551,-0.001964569091796875,0.04989774897694588,-0.137054443359375,-0.5523681640625,0.0189666748046875
-0.05120968818664551,-0.001964569091796875,0.04989774897694588,-0.137054443359375,-0.5523681640625,0.0189666748046875
-0.05120968818664551,-0.001964569091796875,0.04989774897694588,-0.137054443359375,-0.5523681640625,0.0189666748046875
-0.05120968818664551,-0.001964569091796875,0.04989774897694588,-0.137054443359375,-0.5523681640625,0.0189666748046875
-0.05120968818664551,-0.001964569091796875,0.04989774897694588,-0.137054443359375,-0.5523681640625,0.0189666748046875
-0.05120968818664551,-0.001964569091796875,0.04989774897694588,-0.137054443359375,-0.5523681640625,0.0189666748046875
-0.05120968818664551,-0.001964569091796875,0.04989774897694588,0.022735595703125,0.0005035400390625,0.00042724609375
-0.041889488697052,0.0018739700317382812,-0.29078394174575806,0.022735595703125,0.0005035400390625,0.00042724609375
-0.041889488697052,0.0018739700317382812,-0.29078394174575806,0.022735595703125,0.0005035400390625,0.00042724609375
-0.041889488697052,0.0018739700317382812,-0.29078394174575806,0.022735595703125,0.0005035400390625,0.00042724609375
-0.041889488697052,0.0018739700317382812,-0.29078394174575806,0.022735595703125,0.0005035400390625,0.00042724609375
-0.041889488697052,0.0018739700317382812,-0.29078394174575806,0.022735595703125,0.0005035400390625,0.00042724609375
-0.041889488697052,0.0018739700317382812,-0.29078394174575806,0.022735595703125,0.0005035400390625,0.00042724609375
-0.041889488697052,0.0018739700317382812,-0.29078394174575806,0.022735595703125,0.0005035400390625,0.00042724609375
-0.041889488697052,0.0018739700317382812,-0.29078394174575806,0.022735595703125,0.0005035400390625,0.00042724609375
-0.041889488697052,0.0018739700317382812,-0.29078394174575806,0.022735595703125,0.0005035400390625,0.00042724609375
-0.041889488697052,0.0018739700317382812,-0.29078394174575806,0.022735595703125,0.0005035400390625,0.00042724609375
-0.041889488697052,0.0018739700317382812,-0.29078394174575806,0.022735595703125,0.0005035400390625,0.00042724609375
-0.041889488697052,0.0018739700317382812,-0.29078394174575806,0.022735595703125,0.0005035400390625,0.00042724609375
-0.041889488697052,0.0018739700317382812,-0.29078394174575806,0.022735595703125,0.0005035400390625,0.00042724609375
-0.041889488697052,0.0018739700317382812,-0.29078394174575806,0.022735595703125,0.0005035400390625,0.00042724609375
-0.04674774408340454,0.0014982223510742188,-0.15987537801265717,-0.0245513916015625,-0.0033416748046875,0.00042724609375
-0.04674774408340454,0.0014982223510742188,-0.15987537801265717,-0.0245513916015625,-0.0033416748046875,0.00042724609375
-0.04674774408340454,0.0014982223510742188,-0.15987537801265717,-0.0245513916015625,-0.0033416748046875,0.00042724609375
-0.04674774408340454,0.0014982223510742188,-0.15987537801265717,-0.0245513916015625,-0.0033416748046875,0.00042724609375
-0.04674774408340454,0.0014982223510742188,-0.15987537801265717,-0.0245513916015625,-0.0033416748046875,0.00042724609375
-0.04674774408340454,0.0014982223510742188,-0.15987537801265717,-0.0245513916015625,-0.0033416748046875,0.00042724609375
-0.04674774408340454,0.0014982223510742188,-0.15987537801265717,-0.0245513916015625,-0.0033416748046875,0.00042724609375
-0.04674774408340454,0.0014982223510742188,-0.15987537801265717,-0.0245513916015625,-0.0033416748046875,0.00042724609375
-0.04674774408340454,0.0014982223510742188,-0.15987537801265717,-0.0245513916015625,-0.0033416748046875,0.00042724609375
-0.04674774408340454,0.0014982223510742188,-0.15987537801265717,-0.0245513916015625,-0.0033416748046875,0.00042724609375
-0.04674774408340454,0.0014982223510742188,-0.15987537801265717,-0.0245513916015625,-0.0033416748046875,0.00042724609375
-0.04674774408340454,0.0014982223510742188,-0.15987537801265717,-0.0245513916015625,-0.0033416748046875,0.00042724609375
-0.04082977771759033,0.0023317337036132812,-0.25837498903274536,0.0167694091796875,-0.0022735595703125,0.0008544921875
-0.04082977771759033,0.0023317337036132812,-0.25837498903274536,0.0167694091796875,-0.0022735595703125,0.0008544921875
-0.04082977771759033,0.0023317337036132812,-0.25837498903274536,0.0167694091796875,-0.0022735595703125,0.0008544921875
-0.04082977771759033,0.0023317337036132812,-0.25837498903274536,0.0167694091796875,-0.0022735595703125,0.0008544921875
-0.04082977771759033,0.0023317337036132812,-0.25837498903274536,0.0167694091796875,-0.0022735595703125,0.0008544921875
-0.04082977771759033,0.0023317337036132812,-0.25837498903274536,0.0167694091796875,-0.0022735595703125,0.0008544921875
-0.04082977771759033,0.0023317337036132812,-0.25837498903274536,0.0167694091796875,-0.0022735595703125,0.0008544921875
-0.04082977771759033,0.0023317337036132812,-0.25837498903274536,0.0167694091796875,-0.0022735595703125,0.0008544921875
-0.04082977771759033,0.0023317337036132812,-0.25837498903274536,0.0167694091796875,-0.0022735595703125,0.0008544921875
-0.04082977771759033,0.0023317337036132812,-0.25837498903274536,0.0167694091796875,-0.0022735595703125,0.0008544921875
-0.04082977771759033,0.0023317337036132812,-0.25837498903274536,0.0167694091796875,-0.0022735595703125,0.0008544921875
-0.04082977771759033,0.0023317337036132812,-0.25837498903274536,0.0167694091796875,-0.0022735595703125,0.0008544921875
-0.04082977771759033,0.0023317337036132812,-0.25837498903274536,0.0167694091796875,-0.0022735595703125,0.0008544921875
-0.04082977771759033,0.0023317337036132812,-0.25837498903274536,0.0167694091796875,-0.0022735595703125,0.0008544921875
0.01650935411453247,0.0020723342895507812,0.1650276929140091,-0.041595458984375,0.0173187255859375,-0.00128173828125
0.01650935411453247,0.0020723342895507812,0.1650276929140091,-0.041595458984375,0.0173187255859375,-0.00128173828125
0.01650935411453247,0.0020723342895507812,0.1650276929140091,-0.041595458984375,0.0173187255859375,-0.00128173828125
0.01650935411453247,0.0020723342895507812,0.1650276929140091,-0.041595458984375,0.0173187255859375,-0.00128173828125
0.01650935411453247,0.0020723342895507812,0.1650276929140091,-0.041595458984375,0.0173187255859375,-0.00128173828125
0.01650935411453247,0.0020723342895507812,0.1650276929140091,-0.041595458984375,0.0173187255859375,-0.00128173828125
0.01650935411453247,0.0020723342895507812,0.1650276929140091,-0.041595458984375,0.0173187255859375,-0.00128173828125
0.01650935411453247,0.0020723342895507812,0.1650276929140091,-0.041595458984375,0.0173187255859375,-0.00128173828125
0.01650935411453247,0.0020723342895507812,0.1650276929140091,-0.041595458984375,0.0173187255859375,-0.00128173828125
0.01650935411453247,0.0020723342895507812,0.1650276929140091,-0.041595458984375,0.0173187255859375,-0.00128173828125
0.01650935411453247,0.0020723342895507812,0.1650276929140091,-0.041595458984375,0.0173187255859375,-0.00128173828125
0.01650935411453247,0.0020723342895507812,0.1650276929140091,-0.041595458984375,0.0173187255859375,-0.00128173828125
-0.051805317401885986,-0.008151054382324219,-0.12756751477718353,0.0272064208984375,1.220428466796875,-0.010009765625
-0.051805317401885986,-0.008151054382324219,-0.12756751477718353,0.0272064208984375,1.220428466796875,-0.010009765625
-0.051805317401885986,-0.008151054382324219,-0.12756751477718353,0.0272064208984375,1.220428466796875,-0.010009765625
-0.051805317401885986,-0.008151054382324219,-0.12756751477718353,0.0272064208984375,1.220428466796875,-0.010009765625
-0.051805317401885986,-0.008151054382324219,-0.12756751477718353,0.0272064208984375,1.220428466796875,-0.010009765625
-0.051805317401885986,-0.008151054382324219,-0.12756751477718353,0.0272064208984375,1.220428466796875,-0.010009765625
-0.051805317401885986,-0.008151054382324219,-0.12756751477718353,0.0272064208984375,1.220428466796875,-0.010009765625
-0.051805317401885986,-0.008151054382324219,-0.12756751477718353,0.0272064208984375,1.220428466796875,-0.010009765625
-0.051805317401885986,-0.008151054382324219,-0.12756751477718353,0.0272064208984375,1.220428466796875,-0.010009765625
-0.051805317401885986,-0.008151054382324219,-0.12756751477718353,0.0272064208984375,1.220428466796875,-0.010009765625
-0.051805317401885986,-0.008151054382324219,-0.12756751477718353,0.0272064208984375,1.220428466796875,-0.010009765625
-0.051805317401885986,-0.008151054382324219,-0.12756751477718353,0.0272064208984375,1.220428466796875,-0.010009765625
-0.051805317401885986,-0.008151054382324219,-0.12756751477718353,0.0272064208984375,1.220428466796875,-0.010009765625
-0.051805317401885986,-0.008151054382324219,-0.12756751477718353,0.0272064208984375,1.220428466796875,-0.010009765625
-0.051805317401885986,-0.008151054382324219,-0.12756751477718353,0.0272064208984375,1.220428466796875,-0.010009765625
-0.00532001256942749,0.004347801208496094,0.014535501599311829,-0.07568359375,0.4877471923828125,0.0025482177734375
-0.00532001256942749,0.004347801208496094,0.014535501599311829,-0.07568359375,0.4877471923828125,0.0025482177734375
-0.00532001256942749,0.004347801208496094,0.014535501599311829,-0.07568359375,0.4877471923828125,0.0025482177734375
-0.00532001256942749,0.004347801208496094,0.014535501599311829,-0.07568359375,0.4877471923828125,0.0025482177734375
-0.00532001256942749,0.004347801208496094,0.014535501599311829,-0.07568359375,0.4877471923828125,0.0025482177734375
-0.00532001256942749,0.004347801208496094,0.014535501599311829,-0.07568359375,0.4877471923828125,0.0025482177734375
-0.00532001256942749,0.004347801208496094,0.014535501599311829,-0.07568359375,0.4877471923828125,0.0025482177734375
-0.00532001256942749,0.004347801208496094,0.014535501599311829,-0.07568359375,0.4877471923828125,0.0025482177734375
-0.00532001256942749,0.004347801208496094,0.014535501599311829,-0.07568359375,0.4877471923828125,0.0025482177734375
-0.00532001256942749,0.004347801208496094,0.014535501599311829,-0.07568359375,0.4877471923828125,0.0025482177734375
-0.00532001256942749,0.004347801208496094,0.014535501599311829,-0.07568359375,0.4877471923828125,0.0025482177734375
-0.00532001256942749,0.004347801208496094,0.014535501599311829,-0.07568359375,0.4877471923828125,0.0025482177734375
-0.00532001256942749,0.004347801208496094,0.014535501599311829,-0.07568359375,0.4877471923828125,0.0025482177734375
0.010193228721618652,0.005825042724609375,0.07413677871227264,0.02679443359375,-0.2202301025390625,0.001495361328125
0.010193228721618652,0.005825042724609375,0.07413677871227264,0.02679443359375,-0.2202301025390625,0.001495361328125
0.010193228721618652,0.005825042724609375,0.07413677871227264,0.02679443359375,-0.2202301025390625,0.001495361328125
0.010193228721618652,0.005825042724609375,0.07413677871227264,0.02679443359375,-0.2202301025390625,0.001495361328125
0.010193228721618652,0.005825042724609375,0.07413677871227264,0.02679443359375,-0.2202301025390625,0.001495361328125
0.010193228721618652,0.005825042724609375,0.07413677871227264,0.02679443359375,-0.2202301025390625,0.001495361328125
0.010193228721618652,0.005825042724609375,0.07413677871227264,0.02679443359375,-0.2202301025390625,0.001495361328125
0.0012949705123901367,-0.00437164306640625,-0.43895143270492554,0.125213623046875,-1.172149658203125,0.013427734375
0.0012949705123901367,-0.00437164306640625,-0.43895143270492554,0.125213623046875,-1.172149658203125,0.013427734375
0.0012949705123901367,-0.00437164306640625,-0.43895143270492554,0.125213623046875,-1.172149658203125,0.013427734375
0.0012949705123901367,-0.00437164306640625,-0.43895143270492554,0.125213623046875,-1.172149658203125,0.013427734375
0.0012949705123901367,-0.00437164306640625,-0.43895143270492554,0.125213623046875,-1.172149658203125,0.013427734375
0.0012949705123901367,-0.00437164306640625,-0.43895143270492554,0.125213623046875,-1.172149658203125,0.013427734375
0.0012949705123901367,-0.00437164306640625,-0.43895143270492554,0.125213623046875,-1.172149658203125,0.013427734375
-0.004525542259216309,0.000316619873046875,0.09271293133497238,-0.14898681640625,-0.245361328125,0.0055389404296875
-0.004525542259216309,0.000316619873046875,0.09271293133497238,-0.14898681640625,-0.245361328125,0.0055389404296875
-0.004525542259216309,0.000316619873046875,0.09271293133497238,-0.14898681640625,-0.245361328125,0.0055389404296875
-0.004525542259216309,0.000316619873046875,0.09271293133497238,-0.14898681640625,-0.245361328125,0.0055389404296875
-0.004525542259216309,0.000316619873046875,0.09271293133497238,-0.14898681640625,-0.245361328125,0.0055389404296875
-0.004525542259216309,0.000316619873046875,0.09271293133497238,-0.14898681640625,-0.245361328125,0.0055389404296875
-0.004525542259216309,0.000316619873046875,0.09271293133497238,-0.14898681640625,-0.245361328125,0.0055389404296875
-0.004525542259216309,0.000316619873046875,0.09271293133497238,-0.14898681640625,-0.245361328125,0.0055389404296875
-0.004525542259216309,0.000316619873046875,0.09271293133497238,-0.14898681640625,-0.245361328125,0.0055389404296875
-0.004525542259216309,0.000316619873046875,0.09271293133497238,-0.14898681640625,-0.245361328125,0.0055389404296875
-0.004525542259216309,0.000316619873046875,0.09271293133497238,-0.14898681640625,-0.245361328125,0.0055389404296875
-0.004525542259216309,0.000316619873046875,0.09271293133497238,-0.14898681640625,-0.245361328125,0.0055389404296875
-0.004525542259216309,0.000316619873046875,0.09271293133497238,-0.14898681640625,-0.245361328125,0.0055389404296875
-0.004525542259216309,0.000316619873046875,0.09271293133497238,-0.14898681640625,-0.245361328125,0.0055389404296875
0.010035872459411621,-0.004067420959472656,0.06674100458621979,0.036376953125,0.1134185791015625,0.001495361328125
0.010035872459411621,-0.004067420959472656,0.06674100458621979,0.036376953125,0.1134185791015625,0.001495361328125
0.010035872459411621,-0.004067420959472656,0.06674100458621979,0.036376953125,0.1134185791015625,0.001495361328125
0.010035872459411621,-0.004067420959472656,0.06674100458621979,0.036376953125,0.1134185791015625,0.001495361328125
0.010035872459411621,-0.004067420959472656,0.06674100458621979,0.036376953125,0.1134185791015625,0.001495361328125
0.010035872459411621,-0.004067420959472656,0.06674100458621979,0.036376953125,0.1134185791015625,0.001495361328125
0.010035872459411621,-0.004067420959472656,0.06674100458621979,0.036376953125,0.1134185791015625,0.001495361328125
0.010035872459411621,-0.004067420959472656,0.06674100458621979,0.036376953125,0.1134185791015625,0.001495361328125
0.010035872459411621,-0.004067420959472656,0.06674100458621979,0.036376953125,0.1134185791015625,0.001495361328125
0.010035872459411621,-0.004067420959472656,0.06674100458621979,0.036376953125,0.1134185791015625,0.001495361328125
0.010035872459411621,-0.004067420959472656,0.06674100458621979,0.036376953125,0.1134185791015625,0.001495361328125
0.010035872459411621,-0.004067420959472656,0.06674100458621979,0.036376953125,0.1134185791015625,0.001495361328125
0.010035872459411621,-0.004067420959472656,0.06674100458621979,0.036376953125,0.1134185791015625,0.001495361328125
0.010035872459411621,-0.004067420959472656,0.06674100458621979,0.036376953125,0.1134185791015625,0.001495361328125
-0.021950602531433105,-0.000213623046875,0.05829360708594322,-0.0205078125,1.35040283203125,0.001495361328125
-0.021950602531433105,-0.000213623046875,0.05829360708594322,-0.0205078125,1.35040283203125,0.001495361328125
-0.021950602531433105,-0.000213623046875,0.05829360708594322,-0.0205078125,1.35040283203125,0.001495361328125
-0.021950602531433105,-0.000213623046875,0.05829360708594322,-0.0205078125,1.35040283203125,0.001495361328125
-0.021950602531433105,-0.000213623046875,0.05829360708594322,-0.0205078125,1.35040283203125,0.001495361328125
-0.021950602531433105,-0.000213623046875,0.05829360708594322,-0.0205078125,1.35040283203125,0.001495361328125
-0.021950602531433105,-0.000213623046875,0.05829360708594322,-0.0205078125,1.35040283203125,0.001495361328125
-0.021950602531433105,-0.000213623046875,0.05829360708594322,-0.0205078125,1.35040283203125,0.001495361328125
-0.021950602531433105,-0.000213623046875,0.05829360708594322,-0.0205078125,1.35040283203125,0.001495361328125
-0.021950602531433105,-0.000213623046875,0.05829360708594322,-0.0205078125,1.35040283203125,0.001495361328125
-0.021950602531433105,-0.000213623046875,0.05829360708594322,-0.0205078125,1.35040283203125,0.001495361328125
-0.021950602531433105,-0.000213623046875,0.05829360708594322,-0.0205078125,1.35040283203125,0.001495361328125
-0.021950602531433105,-0.000213623046875,0.05829360708594322,-0.0205078125,1.35040283203125,0.001495361328125
-0.021950602531433105,-0.000213623046875,0.05829360708594322,-0.0205078125,1.35040283203125,0.001495361328125
-0.021950602531433105,-0.000213623046875,0.05829360708594322,-0.0205078125,1.35040283203125,0.001495361328125
-0.021950602531433105,-0.000213623046875,0.05829360708594322,-0.0205078125,1.35040283203125,0.001495361328125
-0.021950602531433105,-0.000213623046875,0.05829360708594322,-0.0205078125,1.35040283203125,0.001495361328125
-0.04794025421142578,-0.0018367767333984375,-0.01980125904083252,0.0103912353515625,0.484130859375,0.0068206787109375
-0.04794025421142578,-0.0018367767333984375,-0.01980125904083252,0.0103912353515625,0.484130859375,0.0068206787109375
-0.04794025421142578,-0.0018367767333984375,-0.01980125904083252,0.0103912353515625,0.484130859375,0.0068206787109375
-0.04794025421142578,-0.0018367767333984375,-0.01980125904083252,0.0103912353515625,0.484130859375,0.0068206787109375
-0.04794025421142578,-0.0018367767333984375,-0.01980125904083252,0.0103912353515625,0.484130859375,0.0068206787109375
-0.04794025421142578,-0.0018367767333984375,-0.01980125904083252,0.0103912353515625,0.484130859375,0.0068206787109375
-0.04794025421142578,-0.0018367767333984375,-0.01980125904083252,0.0103912353515625,0.484130859375,0.0068206787109375
-0.04794025421142578,-0.0018367767333984375,-0.01980125904083252,0.0103912353515625,0.484130859375,0.0068206787109375
-0.04794025421142578,-0.0018367767333984375,-0.01980125904083252,0.0103912353515625,0.484130859375,0.0068206787109375
-0.04794025421142578,-0.0018367767333984375,-0.01980125904083252,0.0103912353515625,0.484130859375,0.0068206787109375
-0.04794025421142578,-0.0018367767333984375,-0.01980125904083252,0.0103912353515625,0.484130859375,0.0068206787109375
-0.04794025421142578,-0.0018367767333984375,-0.01980125904083252,0.0103912353515625,0.484130859375,0.0068206787109375
-0.04794025421142578,-0.0018367767333984375,-0.01980125904083252,0.0103912353515625,0.484130859375,0.0068206787109375
-0.04794025421142578,-0.0018367767333984375,-0.01980125904083252,0.0103912353515625,0.484130859375,0.0068206787109375
-0.04794025421142578,-0.0018367767333984375,-0.01980125904083252,0.0103912353515625,0.484130859375,0.0068206787109375
0.005262553691864014,-0.0010128021240234375,0.12401092052459717,0.149932861328125,-1.2119903564453125,0.01300048828125
0.005262553691864014,-0.0010128021240234375,0.12401092052459717,0.149932861328125,-1.2119903564453125,0.01300048828125
0.005262553691864014,-0.0010128021240234375,0.12401092052459717,0.149932861328125,-1.2119903564453125,0.01300048828125
0.005262553691864014,-0.0010128021240234375,0.12401092052459717,0.149932861328125,-1.2119903564453125,0.01300048828125
0.005262553691864014,-0.0010128021240234375,0.12401092052459717,0.149932861328125,-1.2119903564453125,0.01300048828125
0.005262553691864014,-0.0010128021240234375,0.12401092052459717,0.149932861328125,-1.2119903564453125,0.01300048828125
0.005262553691864014,-0.0010128021240234375,0.12401092052459717,0.149932861328125,-1.2119903564453125,0.01300048828125
0.005262553691864014,-0.0010128021240234375,0.12401092052459717,0.149932861328125,-1.2119903564453125,0.01300048828125
0.005262553691864014,-0.0010128021240234375,0.12401092052459717,0.149932861328125,-1.2119903564453125,0.01300048828125
0.005262553691864014,-0.0010128021240234375,0.12401092052459717,0.149932861328125,-1.2119903564453125,0.01300048828125
0.005262553691864014,-0.0010128021240234375,0.12401092052459717,0.149932861328125,-1.2119903564453125,0.01300048828125
0.005262553691864014,-0.0010128021240234375,0.12401092052459717,0.149932861328125,-1.2119903564453125,0.01300048828125
0.005262553691864014,-0.0010128021240234375,0.12401092052459717,0.149932861328125,-1.2119903564453125,0.01300048828125
0.005262553691864014,-0.0010128021240234375,0.12401092052459717,0.149932861328125,-1.2119903564453125,0.01300048828125
0.022935152053833008,-0.015128135681152344,-0.26140010356903076,0.11541748046875,-0.795257568359375,0.0426177978515625
0.022935152053833008,-0.015128135681152344,-0.26140010356903076,0.11541748046875,-0.795257568359375,0.0426177978515625
0.022935152053833008,-0.015128135681152344,-0.26140010356903076,0.11541748046875,-0.795257568359375,0.0426177978515625
0.022935152053833008,-0.015128135681152344,-0.26140010356903076,0.11541748046875,-0.795257568359375,0.0426177978515625
0.022935152053833008,-0.015128135681152344,-0.26140010356903076,0.11541748046875,-0.795257568359375,0.0426177978515625
0.022935152053833008,-0.015128135681152344,-0.26140010356903076,0.11541748046875,-0.795257568359375,0.0426177978515625
0.022935152053833008,-0.015128135681152344,-0.26140010356903076,0.11541748046875,-0.795257568359375,0.0426177978515625
0.022935152053833008,-0.015128135681152344,-0.26140010356903076,0.11541748046875,-0.795257568359375,0.0426177978515625
0.022935152053833008,-0.015128135681152344,-0.26140010356903076,0.11541748046875,-0.795257568359375,0.0426177978515625
0.022935152053833008,-0.015128135681152344,-0.26140010356903076,0.11541748046875,-0.795257568359375,0.0426177978515625
0.022935152053833008,-0.015128135681152344,-0.26140010356903076,0.11541748046875,-0.795257568359375,0.0426177978515625
0.022935152053833008,-0.015128135681152344,-0.26140010356903076,0.11541748046875,-0.795257568359375,0.0426177978515625
0.022935152053833008,-0.015128135681152344,-0.26140010356903076,0.11541748046875,-0.795257568359375,0.0426177978515625
0.022935152053833008,-0.015128135681152344,-0.26140010356903076,0.11541748046875,-0.795257568359375,0.0426177978515625
0.00776517391204834,-0.000110626220703125,-0.2115524411201477,-0.136627197265625,0.171356201171875,-0.0108642578125
0.00776517391204834,-0.000110626220703125,-0.2115524411201477,-0.136627197265625,0.171356201171875,-0.0108642578125
0.00776517391204834,-0.000110626220703125,-0.2115524411201477,-0.136627197265625,0.171356201171875,-0.0108642578125
0.00776517391204834,-0.000110626220703125,-0.2115524411201477,-0.136627197265625,0.171356201171875,-0.0108642578125
0.00776517391204834,-0.000110626220703125,-0.2115524411201477,-0.136627197265625,0.171356201171875,-0.0108642578125
0.00776517391204834,-0.000110626220703125,-0.2115524411201477,-0.136627197265625,0.171356201171875,-0.0108642578125
0.00776517391204834,-0.000110626220703125,-0.2115524411201477,-0.136627197265625,0.171356201171875,-0.0108642578125
0.00776517391204834,-0.000110626220703125,-0.2115524411201477,-0.136627197265625,0.171356201171875,-0.0108642578125
0.00776517391204834,-0.000110626220703125,-0.2115524411201477,-0.136627197265625,0.171356201171875,-0.0108642578125
0.00776517391204834,-0.000110626220703125,-0.2115524411201477,-0.136627197265625,0.171356201171875,-0.0108642578125
0.00776517391204834,-0.000110626220703125,-0.2115524411201477,-0.136627197265625,0.171356201171875,-0.0108642578125
0.00776517391204834,-0.000110626220703125,-0.2115524411201477,-0.136627197265625,0.171356201171875,-0.0108642578125
0.00776517391204834,-0.000110626220703125,-0.2115524411201477,-0.136627197265625,0.171356201171875,-0.0108642578125
0.00776517391204834,-0.000110626220703125,-0.2115524411201477,-0.136627197265625,0.171356201171875,-0.0108642578125
0.00776517391204834,-0.000110626220703125,-0.2115524411201477,-0.136627197265625,0.171356201171875,-0.0108642578125
0.00776517391204834,-0.000110626220703125,-0.2115524411201477,-0.136627197265625,0.171356201171875,-0.0108642578125
0.00776517391204834,-0.000110626220703125,-0.2115524411201477,-0.136627197265625,0.171356201171875,-0.0108642578125
-0.013020753860473633,-0.004313468933105469,0.23118601739406586,-0.238037109375,1.4931488037109375,-0.0046844482421875
-0.013020753860473633,-0.004313468933105469,0.23118601739406586,-0.238037109375,1.4931488037109375,-0.0046844482421875
-0.013020753860473633,-0.004313468933105469,0.23118601739406586,-0.238037109375,1.4931488037109375,-0.0046844482421875
-0.013020753860473633,-0.004313468933105469,0.23118601739406586,-0.238037109375,1.4931488037109375,-0.0046844482421875
-0.013020753860473633,-0.004313468933105469,0.23118601739406586,-0.238037109375,1.4931488037109375,-0.0046844482421875
-0.013020753860473633,-0.004313468933105469,0.23118601739406586,-0.238037109375,1.4931488037109375,-0.0046844482421875
-0.013020753860473633,-0.004313468933105469,0.23118601739406586,-0.238037109375,1.4931488037109375,-0.0046844482421875
-0.013020753860473633,-0.004313468933105469,0.23118601739406586,-0.238037109375,1.4931488037109375,-0.0046844482421875
-0.013020753860473633,-0.004313468933105469,0.23118601739406586,-0.238037109375,1.4931488037109375,-0.0046844482421875
-0.013020753860473633,-0.004313468933105469,0.23118601739406586,-0.238037109375,1.4931488037109375,-0.0046844482421875
-0.013020753860473633,-0.004313468933105469,0.23118601739406586,-0.238037109375,1.4931488037109375,-0.0046844482421875
-0.013020753860473633,-0.004313468933105469,0.23118601739406586,-0.238037109375,1.4931488037109375,-0.0046844482421875
-0.013020753860473633,-0.004313468933105469,0.23118601739406586,-0.238037109375,1.4931488037109375,-0.0046844482421875
-0.013020753860473633,-0.004313468933105469,0.23118601739406586,-0.238037109375,1.4931488037109375,-0.0046844482421875
-0.013020753860473633,-0.004313468933105469,0.23118601739406586,-0.238037109375,1.4931488037109375,-0.0046844482421875
-0.013020753860473633,-0.004313468933105469,0.23118601739406586,-0.238037109375,1.4931488037109375,-0.0046844482421875
-0.031273484230041504,-0.005536079406738281,-0.018340501934289932,0.0137939453125,0.33392333984375,0.0149078369140625
-0.031273484230041504,-0.005536079406738281,-0.018340501934289932,0.0137939453125,0.33392333984375,0.0149078369140625
-0.031273484230041504,-0.005536079406738281,-0.018340501934289932,0.0137939453125,0.33392333984375,0.0149078369140625
-0.031273484230041504,-0.005536079406738281,-0.018340501934289932,0.0137939453125,0.33392333984375,0.0149078369140625
-0.031273484230041504,-0.005536079406738281,-0.018340501934289932,0.0137939453125,0.33392333984375,0.0149078369140625
-0.031273484230041504,-0.005536079406738281,-0.018340501934289932,0.0137939453125,0.33392333984375,0.0149078369140625
-0.031273484230041504,-0.005536079406738281,-0.018340501934289932,0.0137939453125,0.33392333984375,0.0149078369140625
-0.031273484230041504,-0.005536079406738281,-0.018340501934289932,0.0137939453125,0.33392333984375,0.0149078369140625
-0.031273484230041504,-0.005536079406738281,-0.018340501934289932,0.0137939453125,0.33392333984375,0.0149078369140625
-0.031273484230041504,-0.005536079406738281,-0.018340501934289932,0.0137939453125,0.33392333984375,0.0149078369140625
-0.031273484230041504,-0.005536079406738281,-0.018340501934289932,0.0137939453125,0.33392333984375,0.0149078369140625
-0.031273484230041504,-0.005536079406738281,-0.018340501934289932,0.0137939453125,0.33392333984375,0.0149078369140625
-0.031273484230041504,-0.005536079406738281,-0.018340501934289932,0.0137939453125,0.33392333984375,0.0149078369140625
-0.031273484230041504,-0.005536079406738281,-0.018340501934289932,0.0137939453125,0.33392333984375,0.0149078369140625
-0.031273484230041504,-0.005536079406738281,-0.018340501934289932,0.0137939453125,0.33392333984375,0.0149078369140625
0.02668023109436035,-0.0054378509521484375,0.42173177003860474,0.047454833984375,-0.6508026123046875,-0.010650634765625
0.02668023109436035,-0.0054378509521484375,0.42173177003860474,0.047454833984375,-0.6508026123046875,-0.010650634765625
0.02668023109436035,-0.0054378509521484375,0.42173177003860474,0.047454833984375,-0.6508026123046875,-0.010650634765625
0.02668023109436035,-0.0054378509521484375,0.42173177003860474,0.047454833984375,-0.6508026123046875,-0.010650634765625
0.02668023109436035,-0.0054378509521484375,0.42173177003860474,0.047454833984375,-0.6508026123046875,-0.010650634765625
0.02668023109436035,-0.0054378509521484375,0.42173177003860474,0.047454833984375,-0.6508026123046875,-0.010650634765625
0.02668023109436035,-0.0054378509521484375,0.42173177003860474,0.047454833984375,-0.6508026123046875,-0.010650634765625
0.02668023109436035,-0.0054378509521484375,0.42173177003860474,0.047454833984375,-0.6508026123046875,-0.010650634765625
0.02668023109436035,-0.0054378509521484375,0.42173177003860474,0.047454833984375,-0.6508026123046875,-0.010650634765625
0.02668023109436035,-0.0054378509521484375,0.42173177003860474,0.047454833984375,-0.6508026123046875,-0.010650634765625
0.02668023109436035,-0.0054378509521484375,0.42173177003860474,0.047454833984375,-0.6508026123046875,-0.010650634765625
0.02668023109436035,-0.0054378509521484375,0.42173177003860474,0.047454833984375,-0.6508026123046875,-0.010650634765625
0.02668023109436035,-0.0054378509521484375,0.42173177003860474,0.047454833984375,-0.6508026123046875,-0.010650634765625
0.02668023109436035,-0.0054378509521484375,0.42173177003860474,0.047454833984375,-0.6508026123046875,-0.010650634765625
0.03538191318511963,-0.004375457763671875,-0.6718882322311401,0.2360076904296875,-1.1755523681640625,0.0068206787109375
0.03538191318511963,-0.004375457763671875,-0.6718882322311401,0.2360076904296875,-1.1755523681640625,0.0068206787109375
0.03538191318511963,-0.004375457763671875,-0.6718882322311401,0.2360076904296875,-1.1755523681640625,0.0068206787109375
0.03538191318511963,-0.004375457763671875,-0.6718882322311401,0.2360076904296875,-1.1755523681640625,0.0068206787109375
0.03538191318511963,-0.004375457763671875,-0.6718882322311401,0.2360076904296875,-1.1755523681640625,0.0068206787109375
0.03538191318511963,-0.004375457763671875,-0.6718882322311401,0.2360076904296875,-1.1755523681640625,0.0068206787109375
0.03538191318511963,-0.004375457763671875,-0.6718882322311401,0.2360076904296875,-1.1755523681640625,0.0068206787109375
0.03538191318511963,-0.004375457763671875,-0.6718882322311401,0.2360076904296875,-1.1755523681640625,0.0068206787109375
0.03538191318511963,-0.004375457763671875,-0.6718882322311401,0.2360076904296875,-1.1755523681640625,0.0068206787109375
0.03538191318511963,-0.004375457763671875,-0.6718882322311401,0.2360076904296875,-1.1755523681640625,0.0068206787109375
0.03538191318511963,-0.004375457763671875,-0.6718882322311401,0.2360076904296875,-1.1755523681640625,0.0068206787109375
0.03538191318511963,-0.004375457763671875,-0.6718882322311401,0.2360076904296875,-1.1755523681640625,0.0068206787109375
0.03538191318511963,-0.004375457763671875,-0.6718882322311401,0.2360076904296875,-1.1755523681640625,0.0068206787109375
0.029666125774383545,0.015079498291015625,0.038285281509160995,-0.216949462890625,-0.0363616943359375,-0.00299072265625
0.029666125774383545,0.015079498291015625,0.038285281509160995,-0.216949462890625,-0.0363616943359375,-0.00299072265625
0.029666125774383545,0.015079498291015625,0.038285281509160995,-0.216949462890625,-0.0363616943359375,-0.00299072265625
0.029666125774383545,0.015079498291015625,0.038285281509160995,-0.216949462890625,-0.0363616943359375,-0.00299072265625
0.029666125774383545,0.015079498291015625,0.038285281509160995,-0.216949462890625,-0.0363616943359375,-0.00299072265625
0.029666125774383545,0.015079498291015625,0.038285281509160995,-0.216949462890625,-0.0363616943359375,-0.00299072265625
0.029666125774383545,0.015079498291015625,0.038285281509160995,-0.216949462890625,-0.0363616943359375,-0.00299072265625
0.029666125774383545,0.015079498291015625,0.038285281509160995,-0.216949462890625,-0.0363616943359375,-0.00299072265625
0.029666125774383545,0.015079498291015625,0.038285281509160995,-0.216949462890625,-0.0363616943359375,-0.00299072265625
0.029666125774383545,0.015079498291015625,0.038285281509160995,-0.216949462890625,-0.0363616943359375,-0.00299072265625
0.029666125774383545,0.015079498291015625,0.038285281509160995,-0.216949462890625,-0.0363616943359375,-0.00299072265625
0.029666125774383545,0.015079498291015625,0.038285281509160995,-0.216949462890625,-0.0363616943359375,-0.00299072265625
0.029666125774383545,0.015079498291015625,0.038285281509160995,-0.216949462890625,-0.0363616943359375,-0.00299072265625
0.029666125774383545,0.015079498291015625,0.038285281509160995,-0.216949462890625,-0.0363616943359375,-0.00299072265625
-0.0120924711227417,0.0009450912475585938,-0.004746288061141968,0.0204010009765625,-0.0001373291015625,0.001495361328125
-0.0120924711227417,0.0009450912475585938,-0.004746288061141968,0.0204010009765625,-0.0001373291015625,0.001495361328125
-0.0120924711227417,0.0009450912475585938,-0.004746288061141968,0.0204010009765625,-0.0001373291015625,0.001495361328125
-0.0120924711227417,0.0009450912475585938,-0.004746288061141968,0.0204010009765625,-0.0001373291015625,0.001495361328125
-0.0120924711227417,0.0009450912475585938,-0.004746288061141968,0.0204010009765625,-0.0001373291015625,0.001495361328125
-0.0120924711227417,0.0009450912475585938,-0.004746288061141968,0.0204010009765625,-0.0001373291015625,0.001495361328125
-0.0120924711227417,0.0009450912475585938,-0.004746288061141968,0.0204010009765625,-0.0001373291015625,0.001495361328125
-0.0120924711227417,0.0009450912475585938,-0.004746288061141968,0.0204010009765625,-0.0001373291015625,0.001495361328125
-0.0120924711227417,0.0009450912475585938,-0.004746288061141968,0.0204010009765625,-0.0001373291015625,0.001495361328125
-0.0120924711227417,0.0009450912475585938,-0.004746288061141968,0.0204010009765625,-0.0001373291015625,0.001495361328125
-0.0120924711227417,0.0009450912475585938,-0.004746288061141968,0.0204010009765625,-0.0001373291015625,0.001495361328125
-0.0120924711227417,0.0009450912475585938,-0.004746288061141968,0.0204010009765625,-0.0001373291015625,0.001495361328125
-0.0120924711227417,0.0009450912475585938,-0.004746288061141968,0.0204010009765625,-0.0001373291015625,0.001495361328125
-0.0120924711227417,0.0009450912475585938,-0.004746288061141968,0.0204010009765625,-0.0001373291015625,0.001495361328125
0.022761940956115723,0.010903358459472656,-0.1857396513223648,0.003143310546875,-0.0014190673828125,0.001922607421875
0.022761940956115723,0.010903358459472656,-0.1857396513223648,0.003143310546875,-0.0014190673828125,0.001922607421875
0.022761940956115723,0.010903358459472656,-0.1857396513223648,0.003143310546875,-0.0014190673828125,0.001922607421875
0.022761940956115723,0.010903358459472656,-0.1857396513223648,0.003143310546875,-0.0014190673828125,0.001922607421875
0.022761940956115723,0.010903358459472656,-0.1857396513223648,0.003143310546875,-0.0014190673828125,0.001922607421875
0.022761940956115723,0.010903358459472656,-0.1857396513223648,0.003143310546875,-0.0014190673828125,0.001922607421875
0.022761940956115723,0.010903358459472656,-0.1857396513223648,0.003143310546875,-0.0014190673828125,0.001922607421875
0.022761940956115723,0.010903358459472656,-0.1857396513223648,0.003143310546875,-0.0014190673828125,0.001922607421875
0.022761940956115723,0.010903358459472656,-0.1857396513223648,0.003143310546875,-0.0014190673828125,0.001922607421875
0.022761940956115723,0.010903358459472656,-0.1857396513223648,0.003143310546875,-0.0014190673828125,0.001922607421875
0.022761940956115723,0.010903358459472656,-0.1857396513223648,0.003143310546875,-0.0014190673828125,0.001922607421875
0.022761940956115723,0.010903358459472656,-0.1857396513223648,0.003143310546875,-0.0014190673828125,0.001922607421875
0.022761940956115723,0.010903358459472656,-0.1857396513223648,0.003143310546875,-0.0014190673828125,0.001922607421875
0.005903422832489014,0.005584716796875,-0.18924637138843536,-0.0166778564453125,-0.0020599365234375,0.0008544921875
0.005903422832489014,0.005584716796875,-0.18924637138843536,-0.0166778564453125,-0.0020599365234375,0.0008544921875
0.005903422832489014,0.005584716796875,-0.18924637138843536,-0.0166778564453125,-0.0020599365234375,0.0008544921875
0.005903422832489014,0.005584716796875,-0.18924637138843536,-0.0166778564453125,-0.0020599365234375,0.0008544921875
0.005903422832489014,0.005584716796875,-0.18924637138843536,-0.0166778564453125,-0.0020599365234375,0.0008544921875
0.005903422832489014,0.005584716796875,-0.18924637138843536,-0.0166778564453125,-0.0020599365234375,0.0008544921875
0.005903422832489014,0.005584716796875,-0.18924637138843536,-0.0166778564453125,-0.0020599365234375,0.0008544921875
0.005903422832489014,0.005584716796875,-0.18924637138843536,-0.0166778564453125,-0.0020599365234375,0.0008544921875
0.005903422832489014,0.005584716796875,-0.18924637138843536,-0.0166778564453125,-0.0020599365234375,0.0008544921875
0.005903422832489014,0.005584716796875,-0.18924637138843536,-0.0166778564453125,-0.0020599365234375,0.0008544921875
0.005903422832489014,0.005584716796875,-0.18924637138843536,-0.0166778564453125,-0.0020599365234375,0.0008544921875
0.005903422832489014,0.005584716796875,-0.18924637138843536,-0.0166778564453125,-0.0020599365234375,0.0008544921875
0.005903422832489014,0.005584716796875,-0.18924637138843536,-0.0166778564453125,-0.0020599365234375,0.0008544921875
0.005903422832489014,0.005584716796875,-0.18924637138843536,-0.0166778564453125,-0.0020599365234375,0.0008544921875
0.005903422832489014,0.005584716796875,-0.18924637138843536,-0.045013427734375,-0.0052642822265625,0.001708984375
-0.0012420415878295898,0.0029325485229492188,-0.06119494140148163,-0.045013427734375,-0.0052642822265625,0.001708984375
-0.0012420415878295898,0.0029325485229492188,-0.06119494140148163,-0.045013427734375,-0.0052642822265625,0.001708984375
-0.0012420415878295898,0.0029325485229492188,-0.06119494140148163,-0.045013427734375,-0.0052642822265625,0.001708984375
-0.0012420415878295898,0.0029325485229492188,-0.06119494140148163,-0.045013427734375,-0.0052642822265625,0.001708984375
-0.0012420415878295898,0.0029325485229492188,-0.06119494140148163,-0.045013427734375,-0.0052642822265625,0.001708984375
-0.0012420415878295898,0.0029325485229492188,-0.06119494140148163,-0.045013427734375,-0.0052642822265625,0.001708984375
-0.0012420415878295898,0.0029325485229492188,-0.06119494140148163,-0.045013427734375,-0.0052642822265625,0.001708984375
-0.0012420415878295898,0.0029325485229492188,-0.06119494140148163,-0.045013427734375,-0.0052642822265625,0.001708984375
-0.0012420415878295898,0.0029325485229492188,-0.06119494140148163,-0.045013427734375,-0.0052642822265625,0.001708984375
-0.0012420415878295898,0.0029325485229492188,-0.06119494140148163,-0.045013427734375,-0.0052642822265625,0.001708984375
-0.0012420415878295898,0.0029325485229492188,-0.06119494140148163,-0.045013427734375,-0.0052642822265625,0.001708984375
-0.0012420415878295898,0.0029325485229492188,-0.06119494140148163,-0.045013427734375,-0.0052642822265625,0.001708984375
-0.006285190582275391,0.0015354156494140625,0.02841264009475708,-0.0322265625,0.000701904296875,0.001495361328125
-0.006285190582275391,0.0015354156494140625,0.02841264009475708,-0.0322265625,0.000701904296875,0.001495361328125
-0.006285190582275391,0.0015354156494140625,0.02841264009475708,-0.0322265625,0.000701904296875,0.001495361328125
-0.006285190582275391,0.0015354156494140625,0.02841264009475708,-0.0322265625,0.000701904296875,0.001495361328125
-0.006285190582275391,0.0015354156494140625,0.02841264009475708,-0.0322265625,0.000701904296875,0.001495361328125
-0.006285190582275391,0.0015354156494140625,0.02841264009475708,-0.0322265625,0.000701904296875,0.001495361328125
-0.006285190582275391,0.0015354156494140625,0.02841264009475708,-0.0322265625,0.000701904296875,0.001495361328125
-0.006285190582275391,0.0015354156494140625,0.02841264009475708,-0.0322265625,0.000701904296875,0.001495361328125
-0.006285190582275391,0.0015354156494140625,0.02841264009475708,-0.0322265625,0.000701904296875,0.001495361328125
-0.006285190582275391,0.0015354156494140625,0.02841264009475708,-0.0322265625,0.000701904296875,0.001495361328125
-0.006285190582275391,0.0015354156494140625,0.02841264009475708,-0.0322265625,0.000701904296875,0.001495361328125
-0.006285190582275391,0.0015354156494140625,0.02841264009475708,-0.0322265625,0.000701904296875,0.001495361328125
-0.006285190582275391,0.0015354156494140625,0.02841264009475708,-0.0322265625,0.000701904296875,0.001495361328125
-0.006285190582275391,0.0015354156494140625,0.02841264009475708,-0.0322265625,0.000701904296875,0.001495361328125
-0.006675302982330322,0.0024013519287109375,-0.045560359954833984,0.0176239013671875,-0.0029144287109375,0.001922607421875
-0.006675302982330322,0.0024013519287109375,-0.045560359954833984,0.0176239013671875,-0.0029144287109375,0.001922607421875
-0.006675302982330322,0.0024013519287109375,-0.045560359954833984,0.0176239013671875,-0.0029144287109375,0.001922607421875
-0.006675302982330322,0.0024013519287109375,-0.045560359954833984,0.0176239013671875,-0.0029144287109375,0.001922607421875
-0.006675302982330322,0.0024013519287109375,-0.045560359954833984,0.0176239013671875,-0.0029144287109375,0.001922607421875
-0.006675302982330322,0.0024013519287109375,-0.045560359954833984,0.0176239013671875,-0.0029144287109375,0.001922607421875
-0.006675302982330322,0.0024013519287109375,-0.045560359954833984,0.0176239013671875,-0.0029144287109375,0.001922607421875
-0.006675302982330322,0.0024013519287109375,-0.045560359954833984,0.0176239013671875,-0.0029144287109375,0.001922607421875
-0.006675302982330322,0.0024013519287109375,-0.045560359954833984,0.0176239013671875,-0.0029144287109375,0.001922607421875
-0.006675302982330322,0.0024013519287109375,-0.045560359954833984,0.0176239013671875,-0.0029144287109375,0.001922607421875
-0.006675302982330322,0.0024013519287109375,-0.045560359954833984,0.0176239013671875,-0.0029144287109375,0.001922607421875
-0.006675302982330322,0.0024013519287109375,-0.045560359954833984,0.0176239013671875,-0.0029144287109375,0.001922607421875
-0.006675302982330322,0.0024013519287109375,-0.045560359954833984,0.0176239013671875,-0.0029144287109375,0.001922607421875
-0.006675302982330322,0.0024013519287109375,-0.045560359954833984,0.0176239013671875,-0.0029144287109375,0.001922607421875
-0.006675302982330322,0.0024013519287109375,-0.045560359954833984,0.0176239013671875,-0.0029144287109375,0.001922607421875
-0.006675302982330322,0.0024013519287109375,-0.045560359954833984,0.0176239013671875,-0.0029144287109375,0.001922607421875
-0.0026894807815551758,-0.0003337860107421875,-0.018297553062438965,0.003143310546875,-0.0044097900390625,0.001068115234375
-0.0026894807815551758,-0.0003337860107421875,-0.018297553062438965,0.003143310546875,-0.0044097900390625,0.001068115234375
-0.0026894807815551758,-0.0003337860107421875,-0.018297553062438965,0.003143310546875,-0.0044097900390625,0.001068115234375
-0.0026894807815551758,-0.0003337860107421875,-0.018297553062438965,0.003143310546875,-0.0044097900390625,0.001068115234375
-0.0026894807815551758,-0.0003337860107421875,-0.018297553062438965,0.003143310546875,-0.0044097900390625,0.001068115234375
-0.0026894807815551758,-0.0003337860107421875,-0.018297553062438965,0.003143310546875,-0.0044097900390625,0.001068115234375
-0.0026894807815551758,-0.0003337860107421875,-0.018297553062438965,0.003143310546875,-0.0044097900390625,0.001068115234375
-0.0026894807815551758,-0.0003337860107421875,-0.018297553062438965,0.003143310546875,-0.0044097900390625,0.001068115234375
-0.0026894807815551758,-0.0003337860107421875,-0.018297553062438965,0.003143310546875,-0.0044097900390625,0.001068115234375
-0.0026894807815551758,-0.0003337860107421875,-0.018297553062438965,0.003143310546875,-0.0044097900390625,0.001068115234375
-0.0026894807815551758,-0.0003337860107421875,-0.018297553062438965,0.003143310546875,-0.0044097900390625,0.001068115234375
-0.0026894807815551758,-0.0003337860107421875,-0.018297553062438965,0.003143310546875,-0.0044097900390625,0.001068115234375
-0.0026894807815551758,-0.0003337860107421875,-0.018297553062438965,0.003143310546875,-0.0044097900390625,0.001068115234375
-0.0026894807815551758,-0.0003337860107421875,-0.018297553062438965,0.003143310546875,-0.0044097900390625,0.001068115234375
-0.0026894807815551758,-0.0003337860107421875,-0.018297553062438965,0.003143310546875,-0.0044097900390625,0.001068115234375
-0.0026894807815551758,-0.0003337860107421875,-0.018297553062438965,0.003143310546875,-0.0044097900390625,0.001068115234375
-0.001653432846069336,0.00019359588623046875,-0.0057015568017959595,0.0029296875,-0.0029144287109375,0.002349853515625
-0.001653432846069336,0.00019359588623046875,-0.0057015568017959595,0.0029296875,-0.0029144287109375,0.002349853515625
-0.001653432846069336,0.00019359588623046875,-0.0057015568017959595,0.0029296875,-0.0029144287109375,0.002349853515625
-0.001653432846069336,0.00019359588623046875,-0.0057015568017959595,0.0029296875,-0.0029144287109375,0.002349853515625
-0.001653432846069336,0.00019359588623046875,-0.0057015568017959595,0.0029296875,-0.0029144287109375,0.002349853515625
-0.001653432846069336,0.00019359588623046875,-0.0057015568017959595,0.0029296875,-0.0029144287109375,0.002349853515625
-0.001653432846069336,0.00019359588623046875,-0.0057015568017959595,0.0029296875,-0.0029144287109375,0.002349853515625
-0.001653432846069336,0.00019359588623046875,-0.0057015568017959595,0.0029296875,-0.0029144287109375,0.002349853515625
-0.001653432846069336,0.00019359588623046875,-0.0057015568017959595,0.0029296875,-0.0029144287109375,0.002349853515625
-0.001653432846069336,0.00019359588623046875,-0.0057015568017959595,0.0029296875,-0.0029144287109375,0.002349853515625
-0.001653432846069336,0.00019359588623046875,-0.0057015568017959595,0.0029296875,-0.0029144287109375,0.002349853515625
-0.001653432846069336,0.00019359588623046875,-0.0057015568017959595,0.0029296875,-0.0029144287109375,0.002349853515625
-0.001653432846069336,0.00019359588623046875,-0.0057015568017959595,0.0029296875,-0.0029144287109375,0.002349853515625
-0.005109131336212158,-0.0005388259887695312,-0.0037236660718917847,-0.0023956298828125,-0.0033416748046875,0.00213623046875
-0.005109131336212158,-0.0005388259887695312,-0.0037236660718917847,-0.0023956298828125,-0.0033416748046875,0.00213623046875
-0.005109131336212158,-0.0005388259887695312,-0.0037236660718917847,-0.0023956298828125,-0.0033416748046875,0.00213623046875
-0.005109131336212158,-0.0005388259887695312,-0.0037236660718917847,-0.0023956298828125,-0.0033416748046875,0.00213623046875
-0.005109131336212158,-0.0005388259887695312,-0.0037236660718917847,-0.0023956298828125,-0.0033416748046875,0.00213623046875
-0.005109131336212158,-0.0005388259887695312,-0.0037236660718917847,-0.0023956298828125,-0.0033416748046875,0.00213623046875
-0.005109131336212158,-0.0005388259887695312,-0.0037236660718917847,-0.0023956298828125,-0.0033416748046875,0.00213623046875
-0.005109131336212158,-0.0005388259887695312,-0.0037236660718917847,-0.0023956298828125,-0.0033416748046875,0.00213623046875
-0.005109131336212158,-0.0005388259887695312,-0.0037236660718917847,-0.0023956298828125,-0.0033416748046875,0.00213623046875
-0.005109131336212158,-0.0005388259887695312,-0.0037236660718917847,-0.0023956298828125,-0.0033416748046875,0.00213623046875
-0.005109131336212158,-0.0005388259887695312,-0.0037236660718917847,-0.0023956298828125,-0.0033416748046875,0.00213623046875
-0.005109131336212158,-0.0005388259887695312,-0.0037236660718917847,-0.0023956298828125,-0.0033416748046875,0.00213623046875
-0.005109131336212158,-0.0005388259887695312,-0.0037236660718917847,-0.0023956298828125,-0.0033416748046875,0.00213623046875
-0.008966982364654541,-0.0036230087280273438,-0.04478031396865845,-0.0015411376953125,-0.0027008056640625,0.0025634765625
-0.008966982364654541,-0.0036230087280273438,-0.04478031396865845,-0.0015411376953125,-0.0027008056640625,0.0025634765625
closed
